period_in_session,subject,behavioral_evaluator_choice,bayes_evaluator_choice,session,subject_in_session,group,q,bluecore,blueshell,block,period_in_block,evaluator_choice,payoff,game,order,bluereport,period_in_treatment,role,urn,reporter_choice,reporter_truth,q8,lateblock,cc,hf,cl,ca,orangereport_orangecore,bluereport_bluecore,bluereport_orangecore,orangereport_bluecore,oreport_ocore_vs_breport_bcore,breport_bcore_vs_breport_ocore,breport_ocore_vs_oreport_bcore
1,1,,,1,1,1,6,1,0,1,1,70,.7,HF,6868,1,1,reporter,uninformative,lie,0,0,0,0,1,0,0,0,1,0,0,1,0,
2,1,,,1,1,1,6,1,0,1,2,50,.5,HF,6868,1,2,reporter,uninformative,lie,0,0,0,0,1,0,0,0,1,0,0,1,0,
3,1,,,1,1,1,6,1,0,1,3,23,.23,HF,6868,0,3,reporter,uninformative,truth,1,0,0,0,1,0,0,0,0,0,1,,,1
4,1,,,1,1,1,6,0,1,1,4,25,.25,HF,6868,1,4,reporter,uninformative,truth,1,0,0,0,1,0,0,0,0,1,0,,1,0
5,1,,,1,1,1,6,1,1,1,5,40,.4,HF,6868,1,5,reporter,informative,truth,1,0,0,0,1,0,0,0,1,0,0,1,0,
6,1,,,1,1,1,6,1,1,1,6,52,.52,HF,6868,1,6,reporter,informative,truth,1,0,0,0,1,0,0,0,1,0,0,1,0,
7,1,,,1,1,1,6,1,0,1,7,23,.23,HF,6868,0,7,reporter,uninformative,truth,1,0,0,0,1,0,0,0,0,0,1,,,1
8,1,,,1,1,1,6,1,1,1,8,73,.73,HF,6868,1,8,reporter,informative,truth,1,0,0,0,1,0,0,0,1,0,0,1,0,
9,1,,,1,1,1,6,0,0,1,9,55,.55,HF,6868,0,9,reporter,uninformative,truth,1,0,0,0,1,0,0,1,0,0,0,0,,
10,1,,,1,1,1,6,1,1,1,10,66.55,.67,HF,6868,1,10,reporter,uninformative,truth,1,0,0,0,1,0,0,0,1,0,0,1,0,
11,1,,,1,1,1,6,1,1,1,11,68,.6800000000000001,HF,6868,1,11,reporter,uninformative,truth,1,0,0,0,1,0,0,0,1,0,0,1,0,
12,1,,,1,1,1,6,1,0,1,12,23,.23,HF,6868,0,12,reporter,uninformative,truth,1,0,0,0,1,0,0,0,0,0,1,,,1
13,1,,,1,1,1,6,1,1,1,13,65,.65,HF,6868,1,13,reporter,uninformative,truth,1,0,0,0,1,0,0,0,1,0,0,1,0,
14,1,,,1,1,1,6,1,0,1,14,33,.33,HF,6868,0,14,reporter,uninformative,truth,1,0,0,0,1,0,0,0,0,0,1,,,1
15,1,,,1,1,1,6,1,1,1,15,62.46,.62,HF,6868,1,15,reporter,informative,truth,1,0,0,0,1,0,0,0,1,0,0,1,0,
16,1,,,1,1,1,6,1,1,1,16,70,.7,HF,6868,1,16,reporter,uninformative,truth,1,0,0,0,1,0,0,0,1,0,0,1,0,
17,1,,,1,1,1,8,1,1,2,1,50,.5,HF,6868,1,1,reporter,informative,lie,0,1,0,0,1,0,0,0,1,0,0,1,0,
18,1,,,1,1,1,8,1,1,2,2,50,.5,HF,6868,1,2,reporter,informative,lie,0,1,0,0,1,0,0,0,1,0,0,1,0,
19,1,,,1,1,1,8,1,0,2,3,80,.8,HF,6868,1,3,reporter,uninformative,lie,0,1,0,0,1,0,0,0,1,0,0,1,0,
20,1,,,1,1,1,8,0,0,2,4,0,0,HF,6868,1,4,reporter,informative,lie,0,1,0,0,1,0,0,0,0,1,0,,1,0
21,1,,,1,1,1,8,1,1,2,5,58,.58,HF,6868,1,5,reporter,informative,lie,0,1,0,0,1,0,0,0,1,0,0,1,0,
22,1,,,1,1,1,8,1,1,2,6,55,.55,HF,6868,1,6,reporter,uninformative,lie,0,1,0,0,1,0,0,0,1,0,0,1,0,
23,1,,,1,1,1,8,1,1,2,7,65.76000000000001,.66,HF,6868,1,7,reporter,informative,lie,0,1,0,0,1,0,0,0,1,0,0,1,0,
24,1,,,1,1,1,8,0,0,2,8,50,.5,HF,6868,1,8,reporter,informative,lie,0,1,0,0,1,0,0,0,0,1,0,,1,0
25,1,,,1,1,1,8,0,1,2,9,40,.4,HF,6868,1,9,reporter,uninformative,lie,0,1,0,0,1,0,0,0,0,1,0,,1,0
26,1,,,1,1,1,8,1,1,2,10,61,.61,HF,6868,1,10,reporter,informative,lie,0,1,0,0,1,0,0,0,1,0,0,1,0,
27,1,,,1,1,1,8,1,1,2,11,68,.6800000000000001,HF,6868,1,11,reporter,uninformative,lie,0,1,0,0,1,0,0,0,1,0,0,1,0,
28,1,,,1,1,1,8,1,1,2,12,55,.55,HF,6868,1,12,reporter,informative,lie,0,1,0,0,1,0,0,0,1,0,0,1,0,
29,1,,,1,1,1,8,0,1,2,13,35,.35,HF,6868,1,13,reporter,uninformative,lie,0,1,0,0,1,0,0,0,0,1,0,,1,0
30,1,,,1,1,1,8,0,0,2,14,33,.33,HF,6868,1,14,reporter,uninformative,lie,0,1,0,0,1,0,0,0,0,1,0,,1,0
31,1,,,1,1,1,8,0,1,2,15,15,.15,HF,6868,1,15,reporter,uninformative,lie,0,1,0,0,1,0,0,0,0,1,0,,1,0
32,1,,,1,1,1,8,1,1,2,16,50,.5,HF,6868,1,16,reporter,informative,lie,0,1,0,0,1,0,0,0,1,0,0,1,0,
33,1,,,1,1,1,6,0,0,3,1,50,.5,HF,6868,0,17,reporter,informative,truth,1,0,1,0,1,0,0,1,0,0,0,0,,
34,1,,,1,1,1,6,1,1,3,2,55,.55,HF,6868,1,18,reporter,informative,truth,1,0,1,0,1,0,0,0,1,0,0,1,0,
35,1,,,1,1,1,6,0,1,3,3,40,.4,HF,6868,1,19,reporter,uninformative,truth,1,0,1,0,1,0,0,0,0,1,0,,1,0
36,1,,,1,1,1,6,0,0,3,4,45,.45,HF,6868,0,20,reporter,informative,truth,1,0,1,0,1,0,0,1,0,0,0,0,,
37,1,,,1,1,1,6,0,0,3,5,45,.45,HF,6868,0,21,reporter,informative,truth,1,0,1,0,1,0,0,1,0,0,0,0,,
38,1,,,1,1,1,6,1,1,3,6,65,.65,HF,6868,1,22,reporter,uninformative,truth,1,0,1,0,1,0,0,0,1,0,0,1,0,
39,1,,,1,1,1,6,0,1,3,7,40,.4,HF,6868,1,23,reporter,uninformative,truth,1,0,1,0,1,0,0,0,0,1,0,,1,0
40,1,,,1,1,1,6,0,0,3,8,66,.66,HF,6868,0,24,reporter,informative,truth,1,0,1,0,1,0,0,1,0,0,0,0,,
41,1,,,1,1,1,6,1,0,3,9,.57,.01,HF,6868,0,25,reporter,uninformative,truth,1,0,1,0,1,0,0,0,0,0,1,,,1
42,1,,,1,1,1,6,1,1,3,10,83.62000000000001,.84,HF,6868,1,26,reporter,uninformative,truth,1,0,1,0,1,0,0,0,1,0,0,1,0,
43,1,,,1,1,1,6,1,0,3,11,1,.01,HF,6868,0,27,reporter,uninformative,truth,1,0,1,0,1,0,0,0,0,0,1,,,1
44,1,,,1,1,1,6,0,1,3,12,22.53,.23,HF,6868,1,28,reporter,uninformative,truth,1,0,1,0,1,0,0,0,0,1,0,,1,0
45,1,,,1,1,1,6,1,0,3,13,30,.3,HF,6868,0,29,reporter,uninformative,truth,1,0,1,0,1,0,0,0,0,0,1,,,1
46,1,,,1,1,1,6,1,1,3,14,62,.62,HF,6868,1,30,reporter,informative,truth,1,0,1,0,1,0,0,0,1,0,0,1,0,
47,1,,,1,1,1,6,1,1,3,15,55,.55,HF,6868,1,31,reporter,uninformative,lie,0,0,1,0,1,0,0,0,1,0,0,1,0,
48,1,,,1,1,1,6,1,0,3,16,50,.5,HF,6868,1,32,reporter,uninformative,lie,0,0,1,0,1,0,0,0,1,0,0,1,0,
49,1,,,1,1,1,8,1,1,4,1,64,.64,HF,6868,1,17,reporter,informative,lie,0,1,1,0,1,0,0,0,1,0,0,1,0,
50,1,,,1,1,1,8,1,1,4,2,80.04000000000001,.8,HF,6868,1,18,reporter,informative,lie,0,1,1,0,1,0,0,0,1,0,0,1,0,
51,1,,,1,1,1,8,1,0,4,3,50,.5,HF,6868,1,19,reporter,uninformative,lie,0,1,1,0,1,0,0,0,1,0,0,1,0,
52,1,,,1,1,1,8,1,1,4,4,55,.55,HF,6868,1,20,reporter,informative,lie,0,1,1,0,1,0,0,0,1,0,0,1,0,
53,1,,,1,1,1,8,1,1,4,5,50,.5,HF,6868,1,21,reporter,informative,lie,0,1,1,0,1,0,0,0,1,0,0,1,0,
54,1,,,1,1,1,8,0,0,4,6,33,.33,HF,6868,1,22,reporter,informative,lie,0,1,1,0,1,0,0,0,0,1,0,,1,0
55,1,,,1,1,1,8,1,1,4,7,53,.53,HF,6868,1,23,reporter,informative,lie,0,1,1,0,1,0,0,0,1,0,0,1,0,
56,1,,,1,1,1,8,1,1,4,8,51,.51,HF,6868,1,24,reporter,informative,lie,0,1,1,0,1,0,0,0,1,0,0,1,0,
57,1,,,1,1,1,8,0,1,4,9,50,.5,HF,6868,1,25,reporter,uninformative,lie,0,1,1,0,1,0,0,0,0,1,0,,1,0
58,1,,,1,1,1,8,1,1,4,10,50,.5,HF,6868,1,26,reporter,uninformative,lie,0,1,1,0,1,0,0,0,1,0,0,1,0,
59,1,,,1,1,1,8,0,1,4,11,0,0,HF,6868,1,27,reporter,uninformative,lie,0,1,1,0,1,0,0,0,0,1,0,,1,0
60,1,,,1,1,1,8,1,1,4,12,55,.55,HF,6868,1,28,reporter,informative,lie,0,1,1,0,1,0,0,0,1,0,0,1,0,
61,1,,,1,1,1,8,1,0,4,13,55,.55,HF,6868,1,29,reporter,uninformative,lie,0,1,1,0,1,0,0,0,1,0,0,1,0,
62,1,,,1,1,1,8,0,0,4,14,20,.2,HF,6868,1,30,reporter,uninformative,lie,0,1,1,0,1,0,0,0,0,1,0,,1,0
63,1,,,1,1,1,8,1,1,4,15,78,.78,HF,6868,1,31,reporter,informative,lie,0,1,1,0,1,0,0,0,1,0,0,1,0,
64,1,,,1,1,1,8,1,1,4,16,30,.3,HF,6868,1,32,reporter,uninformative,lie,0,1,1,0,1,0,0,0,1,0,0,1,0,
1,2,,,1,2,2,6,1,0,1,1,19.8,.2,HF,6868,0,1,reporter,uninformative,truth,1,0,0,0,1,0,0,0,0,0,1,,,1
2,2,,,1,2,2,6,1,0,1,2,61.43,.61,HF,6868,1,2,reporter,uninformative,lie,0,0,0,0,1,0,0,0,1,0,0,1,0,
3,2,,,1,2,2,6,0,0,1,3,66.09999999999999,.66,HF,6868,0,3,reporter,uninformative,truth,1,0,0,0,1,0,0,1,0,0,0,0,,
4,2,,,1,2,2,6,1,1,1,4,70,.7,HF,6868,1,4,reporter,informative,lie,0,0,0,0,1,0,0,0,1,0,0,1,0,
5,2,,,1,2,2,6,1,0,1,5,30,.3,HF,6868,0,5,reporter,uninformative,truth,1,0,0,0,1,0,0,0,0,0,1,,,1
6,2,,,1,2,2,6,0,0,1,6,40,.4,HF,6868,0,6,reporter,informative,truth,1,0,0,0,1,0,0,1,0,0,0,0,,
7,2,,,1,2,2,6,0,0,1,7,40,.4,HF,6868,1,7,reporter,informative,lie,0,0,0,0,1,0,0,0,0,1,0,,1,0
8,2,,,1,2,2,6,0,1,1,8,33,.33,HF,6868,1,8,reporter,uninformative,lie,0,0,0,0,1,0,0,0,0,1,0,,1,0
9,2,,,1,2,2,6,0,1,1,9,30,.3,HF,6868,1,9,reporter,uninformative,lie,0,0,0,0,1,0,0,0,0,1,0,,1,0
10,2,,,1,2,2,6,1,0,1,10,62,.62,HF,6868,1,10,reporter,uninformative,lie,0,0,0,0,1,0,0,0,1,0,0,1,0,
11,2,,,1,2,2,6,1,0,1,11,33,.33,HF,6868,0,11,reporter,uninformative,truth,1,0,0,0,1,0,0,0,0,0,1,,,1
12,2,,,1,2,2,6,0,0,1,12,75,.75,HF,6868,0,12,reporter,uninformative,truth,1,0,0,0,1,0,0,1,0,0,0,0,,
13,2,,,1,2,2,6,1,1,1,13,66,.66,HF,6868,1,13,reporter,informative,lie,0,0,0,0,1,0,0,0,1,0,0,1,0,
14,2,,,1,2,2,6,1,1,1,14,80,.8,HF,6868,1,14,reporter,uninformative,lie,0,0,0,0,1,0,0,0,1,0,0,1,0,
15,2,,,1,2,2,6,0,0,1,15,0,0,HF,6868,1,15,reporter,informative,lie,0,0,0,0,1,0,0,0,0,1,0,,1,0
16,2,,,1,2,2,6,1,1,1,16,60,.6,HF,6868,1,16,reporter,informative,lie,0,0,0,0,1,0,0,0,1,0,0,1,0,
17,2,,,1,2,2,8,1,1,2,1,80,.8,HF,6868,1,1,reporter,informative,lie,0,1,0,0,1,0,0,0,1,0,0,1,0,
18,2,,,1,2,2,8,1,1,2,2,65,.65,HF,6868,1,2,reporter,uninformative,truth,1,1,0,0,1,0,0,0,1,0,0,1,0,
19,2,,,1,2,2,8,0,0,2,3,20,.2,HF,6868,1,3,reporter,informative,lie,0,1,0,0,1,0,0,0,0,1,0,,1,0
20,2,,,1,2,2,8,1,0,2,4,70,.7,HF,6868,1,4,reporter,uninformative,lie,0,1,0,0,1,0,0,0,1,0,0,1,0,
21,2,,,1,2,2,8,1,1,2,5,60,.6,HF,6868,1,5,reporter,informative,truth,1,1,0,0,1,0,0,0,1,0,0,1,0,
22,2,,,1,2,2,8,0,0,2,6,38,.38,HF,6868,0,6,reporter,informative,truth,1,1,0,0,1,0,0,1,0,0,0,0,,
23,2,,,1,2,2,8,1,1,2,7,50,.5,HF,6868,1,7,reporter,informative,lie,0,1,0,0,1,0,0,0,1,0,0,1,0,
24,2,,,1,2,2,8,1,1,2,8,80,.8,HF,6868,1,8,reporter,uninformative,truth,1,1,0,0,1,0,0,0,1,0,0,1,0,
25,2,,,1,2,2,8,0,0,2,9,65,.65,HF,6868,0,9,reporter,informative,truth,1,1,0,0,1,0,0,1,0,0,0,0,,
26,2,,,1,2,2,8,1,0,2,10,50,.5,HF,6868,1,10,reporter,uninformative,lie,0,1,0,0,1,0,0,0,1,0,0,1,0,
27,2,,,1,2,2,8,1,1,2,11,74.52,.75,HF,6868,1,11,reporter,informative,lie,0,1,0,0,1,0,0,0,1,0,0,1,0,
28,2,,,1,2,2,8,0,0,2,12,74.52,.75,HF,6868,0,12,reporter,uninformative,truth,1,1,0,0,1,0,0,1,0,0,0,0,,
29,2,,,1,2,2,8,1,1,2,13,50,.5,HF,6868,1,13,reporter,informative,lie,0,1,0,0,1,0,0,0,1,0,0,1,0,
30,2,,,1,2,2,8,1,1,2,14,56,.5600000000000001,HF,6868,1,14,reporter,informative,lie,0,1,0,0,1,0,0,0,1,0,0,1,0,
31,2,,,1,2,2,8,1,1,2,15,78,.78,HF,6868,1,15,reporter,informative,truth,1,1,0,0,1,0,0,0,1,0,0,1,0,
32,2,,,1,2,2,8,1,0,2,16,1,.01,HF,6868,0,16,reporter,uninformative,truth,1,1,0,0,1,0,0,0,0,0,1,,,1
33,2,,,1,2,2,6,1,0,3,1,65,.65,HF,6868,1,17,reporter,uninformative,lie,0,0,1,0,1,0,0,0,1,0,0,1,0,
34,2,,,1,2,2,6,0,1,3,2,44,.44,HF,6868,1,18,reporter,uninformative,lie,0,0,1,0,1,0,0,0,0,1,0,,1,0
35,2,,,1,2,2,6,1,1,3,3,65,.65,HF,6868,1,19,reporter,informative,truth,1,0,1,0,1,0,0,0,1,0,0,1,0,
36,2,,,1,2,2,6,1,1,3,4,80,.8,HF,6868,1,20,reporter,informative,lie,0,0,1,0,1,0,0,0,1,0,0,1,0,
37,2,,,1,2,2,6,1,0,3,5,25,.25,HF,6868,0,21,reporter,uninformative,truth,1,0,1,0,1,0,0,0,0,0,1,,,1
38,2,,,1,2,2,6,1,1,3,6,50,.5,HF,6868,1,22,reporter,informative,truth,1,0,1,0,1,0,0,0,1,0,0,1,0,
39,2,,,1,2,2,6,0,0,3,7,68,.6800000000000001,HF,6868,0,23,reporter,uninformative,truth,1,0,1,0,1,0,0,1,0,0,0,0,,
40,2,,,1,2,2,6,1,1,3,8,63,.63,HF,6868,1,24,reporter,uninformative,lie,0,0,1,0,1,0,0,0,1,0,0,1,0,
41,2,,,1,2,2,6,0,0,3,9,70,.7,HF,6868,0,25,reporter,informative,truth,1,0,1,0,1,0,0,1,0,0,0,0,,
42,2,,,1,2,2,6,0,0,3,10,40,.4,HF,6868,1,26,reporter,uninformative,lie,0,0,1,0,1,0,0,0,0,1,0,,1,0
43,2,,,1,2,2,6,1,1,3,11,33,.33,HF,6868,1,27,reporter,uninformative,lie,0,0,1,0,1,0,0,0,1,0,0,1,0,
44,2,,,1,2,2,6,0,0,3,12,80,.8,HF,6868,0,28,reporter,informative,truth,1,0,1,0,1,0,0,1,0,0,0,0,,
45,2,,,1,2,2,6,1,1,3,13,50,.5,HF,6868,1,29,reporter,uninformative,lie,0,0,1,0,1,0,0,0,1,0,0,1,0,
46,2,,,1,2,2,6,0,1,3,14,15,.15,HF,6868,1,30,reporter,uninformative,truth,1,0,1,0,1,0,0,0,0,1,0,,1,0
47,2,,,1,2,2,6,1,0,3,15,20,.2,HF,6868,0,31,reporter,uninformative,truth,1,0,1,0,1,0,0,0,0,0,1,,,1
48,2,,,1,2,2,6,0,1,3,16,25,.25,HF,6868,1,32,reporter,uninformative,truth,1,0,1,0,1,0,0,0,0,1,0,,1,0
49,2,,,1,2,2,8,0,0,4,1,20.01,.2,HF,6868,1,17,reporter,uninformative,lie,0,1,1,0,1,0,0,0,0,1,0,,1,0
50,2,,,1,2,2,8,1,1,4,2,70,.7,HF,6868,1,18,reporter,informative,lie,0,1,1,0,1,0,0,0,1,0,0,1,0,
51,2,,,1,2,2,8,0,0,4,3,15,.15,HF,6868,1,19,reporter,uninformative,lie,0,1,1,0,1,0,0,0,0,1,0,,1,0
52,2,,,1,2,2,8,0,1,4,4,25,.25,HF,6868,1,20,reporter,uninformative,lie,0,1,1,0,1,0,0,0,0,1,0,,1,0
53,2,,,1,2,2,8,1,1,4,5,55,.55,HF,6868,1,21,reporter,informative,lie,0,1,1,0,1,0,0,0,1,0,0,1,0,
54,2,,,1,2,2,8,1,1,4,6,55,.55,HF,6868,1,22,reporter,informative,lie,0,1,1,0,1,0,0,0,1,0,0,1,0,
55,2,,,1,2,2,8,0,0,4,7,25,.25,HF,6868,1,23,reporter,informative,lie,0,1,1,0,1,0,0,0,0,1,0,,1,0
56,2,,,1,2,2,8,1,1,4,8,65,.65,HF,6868,1,24,reporter,uninformative,lie,0,1,1,0,1,0,0,0,1,0,0,1,0,
57,2,,,1,2,2,8,1,1,4,9,55,.55,HF,6868,1,25,reporter,informative,lie,0,1,1,0,1,0,0,0,1,0,0,1,0,
58,2,,,1,2,2,8,1,1,4,10,50,.5,HF,6868,1,26,reporter,uninformative,lie,0,1,1,0,1,0,0,0,1,0,0,1,0,
59,2,,,1,2,2,8,0,1,4,11,20.01,.2,HF,6868,1,27,reporter,uninformative,lie,0,1,1,0,1,0,0,0,0,1,0,,1,0
60,2,,,1,2,2,8,1,1,4,12,50,.5,HF,6868,1,28,reporter,informative,lie,0,1,1,0,1,0,0,0,1,0,0,1,0,
61,2,,,1,2,2,8,1,1,4,13,70,.7,HF,6868,1,29,reporter,informative,lie,0,1,1,0,1,0,0,0,1,0,0,1,0,
62,2,,,1,2,2,8,1,1,4,14,66,.66,HF,6868,1,30,reporter,uninformative,truth,1,1,1,0,1,0,0,0,1,0,0,1,0,
63,2,,,1,2,2,8,1,1,4,15,64,.64,HF,6868,1,31,reporter,informative,truth,1,1,1,0,1,0,0,0,1,0,0,1,0,
64,2,,,1,2,2,8,1,1,4,16,50,.5,HF,6868,1,32,reporter,informative,lie,0,1,1,0,1,0,0,0,1,0,0,1,0,
1,3,,,1,3,3,6,1,0,1,1,85,.85,HF,6868,1,1,reporter,uninformative,lie,0,0,0,0,1,0,0,0,1,0,0,1,0,
2,3,,,1,3,3,6,0,0,1,2,60,.6,HF,6868,0,2,reporter,uninformative,truth,1,0,0,0,1,0,0,1,0,0,0,0,,
3,3,,,1,3,3,6,1,1,1,3,60,.6,HF,6868,1,3,reporter,informative,lie,0,0,0,0,1,0,0,0,1,0,0,1,0,
4,3,,,1,3,3,6,0,0,1,4,70,.7,HF,6868,0,4,reporter,informative,truth,1,0,0,0,1,0,0,1,0,0,0,0,,
5,3,,,1,3,3,6,0,0,1,5,30,.3,HF,6868,1,5,reporter,informative,lie,0,0,0,0,1,0,0,0,0,1,0,,1,0
6,3,,,1,3,3,6,1,1,1,6,50,.5,HF,6868,1,6,reporter,uninformative,truth,1,0,0,0,1,0,0,0,1,0,0,1,0,
7,3,,,1,3,3,6,1,0,1,7,63,.63,HF,6868,1,7,reporter,uninformative,lie,0,0,0,0,1,0,0,0,1,0,0,1,0,
8,3,,,1,3,3,6,1,0,1,8,50,.5,HF,6868,1,8,reporter,uninformative,lie,0,0,0,0,1,0,0,0,1,0,0,1,0,
9,3,,,1,3,3,6,0,0,1,9,60,.6,HF,6868,1,9,reporter,uninformative,lie,0,0,0,0,1,0,0,0,0,1,0,,1,0
10,3,,,1,3,3,6,0,1,1,10,40,.4,HF,6868,1,10,reporter,uninformative,truth,1,0,0,0,1,0,0,0,0,1,0,,1,0
11,3,,,1,3,3,6,0,1,1,11,26,.26,HF,6868,1,11,reporter,uninformative,lie,0,0,0,0,1,0,0,0,0,1,0,,1,0
12,3,,,1,3,3,6,1,1,1,12,75,.75,HF,6868,1,12,reporter,informative,lie,0,0,0,0,1,0,0,0,1,0,0,1,0,
13,3,,,1,3,3,6,0,0,1,13,70,.7,HF,6868,0,13,reporter,informative,truth,1,0,0,0,1,0,0,1,0,0,0,0,,
14,3,,,1,3,3,6,1,1,1,14,55,.55,HF,6868,1,14,reporter,informative,truth,1,0,0,0,1,0,0,0,1,0,0,1,0,
15,3,,,1,3,3,6,1,0,1,15,0,0,HF,6868,0,15,reporter,uninformative,truth,1,0,0,0,1,0,0,0,0,0,1,,,1
16,3,,,1,3,3,6,1,1,1,16,80,.8,HF,6868,1,16,reporter,informative,truth,1,0,0,0,1,0,0,0,1,0,0,1,0,
17,3,,,1,3,3,8,0,0,2,1,100,1,HF,6868,0,1,reporter,uninformative,truth,1,1,0,0,1,0,0,1,0,0,0,0,,
18,3,,,1,3,3,8,0,0,2,2,40,.4,HF,6868,1,2,reporter,uninformative,lie,0,1,0,0,1,0,0,0,0,1,0,,1,0
19,3,,,1,3,3,8,0,1,2,3,43,.43,HF,6868,1,3,reporter,uninformative,truth,1,1,0,0,1,0,0,0,0,1,0,,1,0
20,3,,,1,3,3,8,1,1,2,4,0,0,HF,6868,1,4,reporter,informative,truth,1,1,0,0,1,0,0,0,1,0,0,1,0,
21,3,,,1,3,3,8,1,0,2,5,45,.45,HF,6868,0,5,reporter,uninformative,truth,1,1,0,0,1,0,0,0,0,0,1,,,1
22,3,,,1,3,3,8,0,1,2,6,33,.33,HF,6868,1,6,reporter,uninformative,truth,1,1,0,0,1,0,0,0,0,1,0,,1,0
23,3,,,1,3,3,8,1,1,2,7,65,.65,HF,6868,1,7,reporter,uninformative,truth,1,1,0,0,1,0,0,0,1,0,0,1,0,
24,3,,,1,3,3,8,1,1,2,8,55,.55,HF,6868,1,8,reporter,uninformative,truth,1,1,0,0,1,0,0,0,1,0,0,1,0,
25,3,,,1,3,3,8,1,1,2,9,60,.6,HF,6868,1,9,reporter,informative,truth,1,1,0,0,1,0,0,0,1,0,0,1,0,
26,3,,,1,3,3,8,0,1,2,10,30,.3,HF,6868,1,10,reporter,uninformative,truth,1,1,0,0,1,0,0,0,0,1,0,,1,0
27,3,,,1,3,3,8,0,0,2,11,55,.55,HF,6868,0,11,reporter,uninformative,truth,1,1,0,0,1,0,0,1,0,0,0,0,,
28,3,,,1,3,3,8,0,0,2,12,50,.5,HF,6868,1,12,reporter,informative,lie,0,1,0,0,1,0,0,0,0,1,0,,1,0
29,3,,,1,3,3,8,1,1,2,13,80,.8,HF,6868,1,13,reporter,uninformative,truth,1,1,0,0,1,0,0,0,1,0,0,1,0,
30,3,,,1,3,3,8,0,0,2,14,40,.4,HF,6868,0,14,reporter,informative,truth,1,1,0,0,1,0,0,1,0,0,0,0,,
31,3,,,1,3,3,8,1,1,2,15,60,.6,HF,6868,1,15,reporter,informative,truth,1,1,0,0,1,0,0,0,1,0,0,1,0,
32,3,,,1,3,3,8,0,1,2,16,20,.2,HF,6868,1,16,reporter,uninformative,truth,1,1,0,0,1,0,0,0,0,1,0,,1,0
33,3,,,1,3,3,6,0,0,3,1,50,.5,HF,6868,1,17,reporter,informative,lie,0,0,1,0,1,0,0,0,0,1,0,,1,0
34,3,,,1,3,3,6,1,1,3,2,45,.45,HF,6868,1,18,reporter,informative,truth,1,0,1,0,1,0,0,0,1,0,0,1,0,
35,3,,,1,3,3,6,0,0,3,3,74,.74,HF,6868,0,19,reporter,uninformative,truth,1,0,1,0,1,0,0,1,0,0,0,0,,
36,3,,,1,3,3,6,0,1,3,4,58,.58,HF,6868,1,20,reporter,uninformative,truth,1,0,1,0,1,0,0,0,0,1,0,,1,0
37,3,,,1,3,3,6,0,0,3,5,74.18000000000001,.74,HF,6868,0,21,reporter,informative,truth,1,0,1,0,1,0,0,1,0,0,0,0,,
38,3,,,1,3,3,6,0,0,3,6,70,.7,HF,6868,0,22,reporter,informative,truth,1,0,1,0,1,0,0,1,0,0,0,0,,
39,3,,,1,3,3,6,1,1,3,7,20,.2,HF,6868,1,23,reporter,informative,truth,1,0,1,0,1,0,0,0,1,0,0,1,0,
40,3,,,1,3,3,6,1,1,3,8,50,.5,HF,6868,1,24,reporter,uninformative,truth,1,0,1,0,1,0,0,0,1,0,0,1,0,
41,3,,,1,3,3,6,0,1,3,9,21,.21,HF,6868,1,25,reporter,uninformative,lie,0,0,1,0,1,0,0,0,0,1,0,,1,0
42,3,,,1,3,3,6,0,1,3,10,40,.4,HF,6868,1,26,reporter,uninformative,lie,0,0,1,0,1,0,0,0,0,1,0,,1,0
43,3,,,1,3,3,6,0,0,3,11,50,.5,HF,6868,0,27,reporter,informative,truth,1,0,1,0,1,0,0,1,0,0,0,0,,
44,3,,,1,3,3,6,1,1,3,12,50,.5,HF,6868,1,28,reporter,informative,truth,1,0,1,0,1,0,0,0,1,0,0,1,0,
45,3,,,1,3,3,6,0,0,3,13,50,.5,HF,6868,1,29,reporter,informative,lie,0,0,1,0,1,0,0,0,0,1,0,,1,0
46,3,,,1,3,3,6,1,1,3,14,74.18000000000001,.74,HF,6868,1,30,reporter,informative,truth,1,0,1,0,1,0,0,0,1,0,0,1,0,
47,3,,,1,3,3,6,0,0,3,15,50,.5,HF,6868,1,31,reporter,informative,lie,0,0,1,0,1,0,0,0,0,1,0,,1,0
48,3,,,1,3,3,6,1,1,3,16,50,.5,HF,6868,1,32,reporter,informative,truth,1,0,1,0,1,0,0,0,1,0,0,1,0,
49,3,,,1,3,3,8,1,1,4,1,50,.5,HF,6868,1,17,reporter,informative,truth,1,1,1,0,1,0,0,0,1,0,0,1,0,
50,3,,,1,3,3,8,1,1,4,2,50,.5,HF,6868,1,18,reporter,informative,truth,1,1,1,0,1,0,0,0,1,0,0,1,0,
51,3,,,1,3,3,8,1,1,4,3,55,.55,HF,6868,1,19,reporter,informative,truth,1,1,1,0,1,0,0,0,1,0,0,1,0,
52,3,,,1,3,3,8,1,1,4,4,78,.78,HF,6868,1,20,reporter,uninformative,truth,1,1,1,0,1,0,0,0,1,0,0,1,0,
53,3,,,1,3,3,8,1,0,4,5,30,.3,HF,6868,0,21,reporter,uninformative,truth,1,1,1,0,1,0,0,0,0,0,1,,,1
54,3,,,1,3,3,8,1,1,4,6,50,.5,HF,6868,1,22,reporter,informative,truth,1,1,1,0,1,0,0,0,1,0,0,1,0,
55,3,,,1,3,3,8,1,0,4,7,50,.5,HF,6868,1,23,reporter,uninformative,lie,0,1,1,0,1,0,0,0,1,0,0,1,0,
56,3,,,1,3,3,8,0,0,4,8,33,.33,HF,6868,0,24,reporter,informative,truth,1,1,1,0,1,0,0,1,0,0,0,0,,
57,3,,,1,3,3,8,1,0,4,9,20,.2,HF,6868,0,25,reporter,uninformative,truth,1,1,1,0,1,0,0,0,0,0,1,,,1
58,3,,,1,3,3,8,1,1,4,10,64,.64,HF,6868,1,26,reporter,uninformative,lie,0,1,1,0,1,0,0,0,1,0,0,1,0,
59,3,,,1,3,3,8,1,0,4,11,1,.01,HF,6868,0,27,reporter,uninformative,truth,1,1,1,0,1,0,0,0,0,0,1,,,1
60,3,,,1,3,3,8,1,1,4,12,64,.64,HF,6868,1,28,reporter,informative,lie,0,1,1,0,1,0,0,0,1,0,0,1,0,
61,3,,,1,3,3,8,1,1,4,13,50,.5,HF,6868,1,29,reporter,informative,lie,0,1,1,0,1,0,0,0,1,0,0,1,0,
62,3,,,1,3,3,8,1,0,4,14,55,.55,HF,6868,1,30,reporter,uninformative,lie,0,1,1,0,1,0,0,0,1,0,0,1,0,
63,3,,,1,3,3,8,1,1,4,15,55,.55,HF,6868,1,31,reporter,informative,lie,0,1,1,0,1,0,0,0,1,0,0,1,0,
64,3,,,1,3,3,8,1,1,4,16,35,.35,HF,6868,1,32,reporter,informative,truth,1,1,1,0,1,0,0,0,1,0,0,1,0,
1,4,,,1,4,4,6,0,1,1,1,49.15,.49,HF,6868,1,1,reporter,uninformative,lie,0,0,0,0,1,0,0,0,0,1,0,,1,0
2,4,,,1,4,4,6,1,1,1,2,69.97,.7,HF,6868,1,2,reporter,informative,lie,0,0,0,0,1,0,0,0,1,0,0,1,0,
3,4,,,1,4,4,6,0,0,1,3,25,.25,HF,6868,1,3,reporter,informative,lie,0,0,0,0,1,0,0,0,0,1,0,,1,0
4,4,,,1,4,4,6,1,1,1,4,75,.75,HF,6868,1,4,reporter,informative,lie,0,0,0,0,1,0,0,0,1,0,0,1,0,
5,4,,,1,4,4,6,0,0,1,5,0,0,HF,6868,1,5,reporter,uninformative,lie,0,0,0,0,1,0,0,0,0,1,0,,1,0
6,4,,,1,4,4,6,1,1,1,6,37.09,.37,HF,6868,1,6,reporter,uninformative,lie,0,0,0,0,1,0,0,0,1,0,0,1,0,
7,4,,,1,4,4,6,1,1,1,7,36.41,.36,HF,6868,1,7,reporter,informative,lie,0,0,0,0,1,0,0,0,1,0,0,1,0,
8,4,,,1,4,4,6,1,1,1,8,40,.4,HF,6868,1,8,reporter,informative,lie,0,0,0,0,1,0,0,0,1,0,0,1,0,
9,4,,,1,4,4,6,1,1,1,9,72,.72,HF,6868,1,9,reporter,informative,truth,1,0,0,0,1,0,0,0,1,0,0,1,0,
10,4,,,1,4,4,6,0,1,1,10,0,0,HF,6868,1,10,reporter,uninformative,truth,1,0,0,0,1,0,0,0,0,1,0,,1,0
11,4,,,1,4,4,6,1,1,1,11,30,.3,HF,6868,1,11,reporter,informative,truth,1,0,0,0,1,0,0,0,1,0,0,1,0,
12,4,,,1,4,4,6,0,1,1,12,55,.55,HF,6868,1,12,reporter,uninformative,truth,1,0,0,0,1,0,0,0,0,1,0,,1,0
13,4,,,1,4,4,6,1,1,1,13,67.8,.6800000000000001,HF,6868,1,13,reporter,informative,truth,1,0,0,0,1,0,0,0,1,0,0,1,0,
14,4,,,1,4,4,6,0,0,1,14,99,.99,HF,6868,0,14,reporter,informative,truth,1,0,0,0,1,0,0,1,0,0,0,0,,
15,4,,,1,4,4,6,1,1,1,15,55,.55,HF,6868,1,15,reporter,uninformative,truth,1,0,0,0,1,0,0,0,1,0,0,1,0,
16,4,,,1,4,4,6,1,1,1,16,55,.55,HF,6868,1,16,reporter,informative,truth,1,0,0,0,1,0,0,0,1,0,0,1,0,
17,4,,,1,4,4,8,0,0,2,1,45,.45,HF,6868,0,1,reporter,informative,truth,1,1,0,0,1,0,0,1,0,0,0,0,,
18,4,,,1,4,4,8,1,1,2,2,50,.5,HF,6868,1,2,reporter,uninformative,truth,1,1,0,0,1,0,0,0,1,0,0,1,0,
19,4,,,1,4,4,8,1,1,2,3,50,.5,HF,6868,1,3,reporter,informative,truth,1,1,0,0,1,0,0,0,1,0,0,1,0,
20,4,,,1,4,4,8,1,1,2,4,50,.5,HF,6868,1,4,reporter,uninformative,truth,1,1,0,0,1,0,0,0,1,0,0,1,0,
21,4,,,1,4,4,8,1,1,2,5,50,.5,HF,6868,1,5,reporter,informative,truth,1,1,0,0,1,0,0,0,1,0,0,1,0,
22,4,,,1,4,4,8,1,1,2,6,60,.6,HF,6868,1,6,reporter,informative,truth,1,1,0,0,1,0,0,0,1,0,0,1,0,
23,4,,,1,4,4,8,0,1,2,7,50,.5,HF,6868,1,7,reporter,uninformative,truth,1,1,0,0,1,0,0,0,0,1,0,,1,0
24,4,,,1,4,4,8,1,1,2,8,62,.62,HF,6868,1,8,reporter,informative,truth,1,1,0,0,1,0,0,0,1,0,0,1,0,
25,4,,,1,4,4,8,1,1,2,9,50,.5,HF,6868,1,9,reporter,uninformative,lie,0,1,0,0,1,0,0,0,1,0,0,1,0,
26,4,,,1,4,4,8,0,0,2,10,10,.1,HF,6868,1,10,reporter,informative,lie,0,1,0,0,1,0,0,0,0,1,0,,1,0
27,4,,,1,4,4,8,1,0,2,11,60,.6,HF,6868,1,11,reporter,uninformative,lie,0,1,0,0,1,0,0,0,1,0,0,1,0,
28,4,,,1,4,4,8,1,1,2,12,75,.75,HF,6868,1,12,reporter,informative,lie,0,1,0,0,1,0,0,0,1,0,0,1,0,
29,4,,,1,4,4,8,1,1,2,13,47,.47,HF,6868,1,13,reporter,uninformative,lie,0,1,0,0,1,0,0,0,1,0,0,1,0,
30,4,,,1,4,4,8,0,0,2,14,26.96,.27,HF,6868,1,14,reporter,uninformative,lie,0,1,0,0,1,0,0,0,0,1,0,,1,0
31,4,,,1,4,4,8,1,1,2,15,51,.51,HF,6868,1,15,reporter,informative,lie,0,1,0,0,1,0,0,0,1,0,0,1,0,
32,4,,,1,4,4,8,1,1,2,16,51,.51,HF,6868,1,16,reporter,informative,lie,0,1,0,0,1,0,0,0,1,0,0,1,0,
33,4,,,1,4,4,6,0,0,3,1,50,.5,HF,6868,0,17,reporter,informative,truth,1,0,1,0,1,0,0,1,0,0,0,0,,
34,4,,,1,4,4,6,1,0,3,2,38,.38,HF,6868,0,18,reporter,uninformative,truth,1,0,1,0,1,0,0,0,0,0,1,,,1
35,4,,,1,4,4,6,1,1,3,3,50,.5,HF,6868,1,19,reporter,informative,truth,1,0,1,0,1,0,0,0,1,0,0,1,0,
36,4,,,1,4,4,6,1,1,3,4,60,.6,HF,6868,1,20,reporter,informative,truth,1,0,1,0,1,0,0,0,1,0,0,1,0,
37,4,,,1,4,4,6,1,1,3,5,60,.6,HF,6868,1,21,reporter,uninformative,truth,1,0,1,0,1,0,0,0,1,0,0,1,0,
38,4,,,1,4,4,6,1,1,3,6,78.5,.78,HF,6868,1,22,reporter,informative,truth,1,0,1,0,1,0,0,0,1,0,0,1,0,
39,4,,,1,4,4,6,0,0,3,7,50,.5,HF,6868,0,23,reporter,informative,truth,1,0,1,0,1,0,0,1,0,0,0,0,,
40,4,,,1,4,4,6,1,1,3,8,55,.55,HF,6868,1,24,reporter,informative,truth,1,0,1,0,1,0,0,0,1,0,0,1,0,
41,4,,,1,4,4,6,1,1,3,9,64,.64,HF,6868,1,25,reporter,informative,truth,1,0,1,0,1,0,0,0,1,0,0,1,0,
42,4,,,1,4,4,6,0,1,3,10,64,.64,HF,6868,1,26,reporter,uninformative,truth,1,0,1,0,1,0,0,0,0,1,0,,1,0
43,4,,,1,4,4,6,1,1,3,11,64,.64,HF,6868,1,27,reporter,informative,truth,1,0,1,0,1,0,0,0,1,0,0,1,0,
44,4,,,1,4,4,6,1,1,3,12,75,.75,HF,6868,1,28,reporter,informative,truth,1,0,1,0,1,0,0,0,1,0,0,1,0,
45,4,,,1,4,4,6,1,0,3,13,0,0,HF,6868,0,29,reporter,uninformative,truth,1,0,1,0,1,0,0,0,0,0,1,,,1
46,4,,,1,4,4,6,1,0,3,14,50,.5,HF,6868,0,30,reporter,uninformative,truth,1,0,1,0,1,0,0,0,0,0,1,,,1
47,4,,,1,4,4,6,1,1,3,15,64.73,.65,HF,6868,1,31,reporter,uninformative,truth,1,0,1,0,1,0,0,0,1,0,0,1,0,
48,4,,,1,4,4,6,0,0,3,16,60.03,.6,HF,6868,0,32,reporter,informative,truth,1,0,1,0,1,0,0,1,0,0,0,0,,
49,4,,,1,4,4,8,0,0,4,1,15,.15,HF,6868,1,17,reporter,informative,lie,0,1,1,0,1,0,0,0,0,1,0,,1,0
50,4,,,1,4,4,8,1,1,4,2,55,.55,HF,6868,1,18,reporter,informative,lie,0,1,1,0,1,0,0,0,1,0,0,1,0,
51,4,,,1,4,4,8,1,1,4,3,65,.65,HF,6868,1,19,reporter,uninformative,lie,0,1,1,0,1,0,0,0,1,0,0,1,0,
52,4,,,1,4,4,8,1,1,4,4,60,.6,HF,6868,1,20,reporter,informative,lie,0,1,1,0,1,0,0,0,1,0,0,1,0,
53,4,,,1,4,4,8,1,1,4,5,50,.5,HF,6868,1,21,reporter,informative,lie,0,1,1,0,1,0,0,0,1,0,0,1,0,
54,4,,,1,4,4,8,1,1,4,6,50,.5,HF,6868,1,22,reporter,uninformative,lie,0,1,1,0,1,0,0,0,1,0,0,1,0,
55,4,,,1,4,4,8,1,1,4,7,55,.55,HF,6868,1,23,reporter,informative,lie,0,1,1,0,1,0,0,0,1,0,0,1,0,
56,4,,,1,4,4,8,1,1,4,8,80.04000000000001,.8,HF,6868,1,24,reporter,informative,lie,0,1,1,0,1,0,0,0,1,0,0,1,0,
57,4,,,1,4,4,8,0,0,4,9,15,.15,HF,6868,1,25,reporter,uninformative,lie,0,1,1,0,1,0,0,0,0,1,0,,1,0
58,4,,,1,4,4,8,1,0,4,10,80,.8,HF,6868,1,26,reporter,uninformative,lie,0,1,1,0,1,0,0,0,1,0,0,1,0,
59,4,,,1,4,4,8,1,1,4,11,66,.66,HF,6868,1,27,reporter,informative,lie,0,1,1,0,1,0,0,0,1,0,0,1,0,
60,4,,,1,4,4,8,1,1,4,12,50,.5,HF,6868,1,28,reporter,informative,lie,0,1,1,0,1,0,0,0,1,0,0,1,0,
61,4,,,1,4,4,8,1,1,4,13,65,.65,HF,6868,1,29,reporter,informative,lie,0,1,1,0,1,0,0,0,1,0,0,1,0,
62,4,,,1,4,4,8,1,1,4,14,55,.55,HF,6868,1,30,reporter,informative,lie,0,1,1,0,1,0,0,0,1,0,0,1,0,
63,4,,,1,4,4,8,0,0,4,15,25,.25,HF,6868,1,31,reporter,informative,lie,0,1,1,0,1,0,0,0,0,1,0,,1,0
64,4,,,1,4,4,8,1,1,4,16,66,.66,HF,6868,1,32,reporter,informative,lie,0,1,1,0,1,0,0,0,1,0,0,1,0,
1,5,,,1,5,5,6,1,1,1,1,69.28,.69,HF,6868,1,1,reporter,uninformative,lie,0,0,0,0,1,0,0,0,1,0,0,1,0,
2,5,,,1,5,5,6,1,1,1,2,60,.6,HF,6868,1,2,reporter,informative,lie,0,0,0,0,1,0,0,0,1,0,0,1,0,
3,5,,,1,5,5,6,1,1,1,3,68,.6800000000000001,HF,6868,1,3,reporter,informative,truth,1,0,0,0,1,0,0,0,1,0,0,1,0,
4,5,,,1,5,5,6,1,1,1,4,100,1,HF,6868,1,4,reporter,informative,lie,0,0,0,0,1,0,0,0,1,0,0,1,0,
5,5,,,1,5,5,6,0,0,1,5,30,.3,HF,6868,1,5,reporter,uninformative,lie,0,0,0,0,1,0,0,0,0,1,0,,1,0
6,5,,,1,5,5,6,0,0,1,6,1,.01,HF,6868,1,6,reporter,informative,lie,0,0,0,0,1,0,0,0,0,1,0,,1,0
7,5,,,1,5,5,6,1,1,1,7,65,.65,HF,6868,1,7,reporter,informative,truth,1,0,0,0,1,0,0,0,1,0,0,1,0,
8,5,,,1,5,5,6,1,0,1,8,40,.4,HF,6868,0,8,reporter,uninformative,truth,1,0,0,0,1,0,0,0,0,0,1,,,1
9,5,,,1,5,5,6,0,0,1,9,35,.35,HF,6868,1,9,reporter,informative,lie,0,0,0,0,1,0,0,0,0,1,0,,1,0
10,5,,,1,5,5,6,1,0,1,10,60,.6,HF,6868,1,10,reporter,uninformative,lie,0,0,0,0,1,0,0,0,1,0,0,1,0,
11,5,,,1,5,5,6,0,0,1,11,22,.22,HF,6868,1,11,reporter,informative,lie,0,0,0,0,1,0,0,0,0,1,0,,1,0
12,5,,,1,5,5,6,0,0,1,12,.46,0,HF,6868,1,12,reporter,informative,lie,0,0,0,0,1,0,0,0,0,1,0,,1,0
13,5,,,1,5,5,6,0,1,1,13,50,.5,HF,6868,1,13,reporter,uninformative,lie,0,0,0,0,1,0,0,0,0,1,0,,1,0
14,5,,,1,5,5,6,0,0,1,14,40,.4,HF,6868,1,14,reporter,uninformative,lie,0,0,0,0,1,0,0,0,0,1,0,,1,0
15,5,,,1,5,5,6,0,1,1,15,31,.31,HF,6868,1,15,reporter,uninformative,lie,0,0,0,0,1,0,0,0,0,1,0,,1,0
16,5,,,1,5,5,6,1,1,1,16,0,0,HF,6868,1,16,reporter,informative,truth,1,0,0,0,1,0,0,0,1,0,0,1,0,
17,5,,,1,5,5,8,1,0,2,1,74,.74,HF,6868,1,1,reporter,uninformative,lie,0,1,0,0,1,0,0,0,1,0,0,1,0,
18,5,,,1,5,5,8,1,1,2,2,57,.57,HF,6868,1,2,reporter,uninformative,lie,0,1,0,0,1,0,0,0,1,0,0,1,0,
19,5,,,1,5,5,8,0,1,2,3,75,.75,HF,6868,1,3,reporter,uninformative,lie,0,1,0,0,1,0,0,0,0,1,0,,1,0
20,5,,,1,5,5,8,1,0,2,4,76.34,.76,HF,6868,1,4,reporter,uninformative,lie,0,1,0,0,1,0,0,0,1,0,0,1,0,
21,5,,,1,5,5,8,1,1,2,5,60,.6,HF,6868,1,5,reporter,informative,lie,0,1,0,0,1,0,0,0,1,0,0,1,0,
22,5,,,1,5,5,8,0,0,2,6,63,.63,HF,6868,1,6,reporter,uninformative,lie,0,1,0,0,1,0,0,0,0,1,0,,1,0
23,5,,,1,5,5,8,1,1,2,7,55,.55,HF,6868,1,7,reporter,informative,lie,0,1,0,0,1,0,0,0,1,0,0,1,0,
24,5,,,1,5,5,8,1,0,2,8,60,.6,HF,6868,1,8,reporter,uninformative,lie,0,1,0,0,1,0,0,0,1,0,0,1,0,
25,5,,,1,5,5,8,1,1,2,9,67,.67,HF,6868,1,9,reporter,informative,lie,0,1,0,0,1,0,0,0,1,0,0,1,0,
26,5,,,1,5,5,8,1,0,2,10,76,.76,HF,6868,1,10,reporter,uninformative,lie,0,1,0,0,1,0,0,0,1,0,0,1,0,
27,5,,,1,5,5,8,1,1,2,11,50,.5,HF,6868,1,11,reporter,uninformative,lie,0,1,0,0,1,0,0,0,1,0,0,1,0,
28,5,,,1,5,5,8,1,1,2,12,58,.58,HF,6868,1,12,reporter,uninformative,lie,0,1,0,0,1,0,0,0,1,0,0,1,0,
29,5,,,1,5,5,8,0,0,2,13,36,.36,HF,6868,1,13,reporter,informative,lie,0,1,0,0,1,0,0,0,0,1,0,,1,0
30,5,,,1,5,5,8,1,1,2,14,51,.51,HF,6868,1,14,reporter,informative,lie,0,1,0,0,1,0,0,0,1,0,0,1,0,
31,5,,,1,5,5,8,1,1,2,15,85.89,.86,HF,6868,1,15,reporter,informative,lie,0,1,0,0,1,0,0,0,1,0,0,1,0,
32,5,,,1,5,5,8,1,1,2,16,55,.55,HF,6868,1,16,reporter,uninformative,lie,0,1,0,0,1,0,0,0,1,0,0,1,0,
33,5,,,1,5,5,6,0,1,3,1,40,.4,HF,6868,1,17,reporter,uninformative,truth,1,0,1,0,1,0,0,0,0,1,0,,1,0
34,5,,,1,5,5,6,1,0,3,2,43,.43,HF,6868,0,18,reporter,uninformative,truth,1,0,1,0,1,0,0,0,0,0,1,,,1
35,5,,,1,5,5,6,1,1,3,3,65,.65,HF,6868,1,19,reporter,uninformative,lie,0,0,1,0,1,0,0,0,1,0,0,1,0,
36,5,,,1,5,5,6,1,1,3,4,70,.7,HF,6868,1,20,reporter,informative,lie,0,0,1,0,1,0,0,0,1,0,0,1,0,
37,5,,,1,5,5,6,1,0,3,5,80,.8,HF,6868,1,21,reporter,uninformative,lie,0,0,1,0,1,0,0,0,1,0,0,1,0,
38,5,,,1,5,5,6,0,0,3,6,60,.6,HF,6868,1,22,reporter,uninformative,lie,0,0,1,0,1,0,0,0,0,1,0,,1,0
39,5,,,1,5,5,6,0,0,3,7,20,.2,HF,6868,1,23,reporter,informative,lie,0,0,1,0,1,0,0,0,0,1,0,,1,0
40,5,,,1,5,5,6,1,1,3,8,77,.77,HF,6868,1,24,reporter,uninformative,lie,0,0,1,0,1,0,0,0,1,0,0,1,0,
41,5,,,1,5,5,6,1,1,3,9,50,.5,HF,6868,1,25,reporter,informative,lie,0,0,1,0,1,0,0,0,1,0,0,1,0,
42,5,,,1,5,5,6,0,1,3,10,50,.5,HF,6868,1,26,reporter,uninformative,lie,0,0,1,0,1,0,0,0,0,1,0,,1,0
43,5,,,1,5,5,6,1,0,3,11,69,.69,HF,6868,1,27,reporter,uninformative,lie,0,0,1,0,1,0,0,0,1,0,0,1,0,
44,5,,,1,5,5,6,0,0,3,12,50,.5,HF,6868,1,28,reporter,informative,lie,0,0,1,0,1,0,0,0,0,1,0,,1,0
45,5,,,1,5,5,6,0,0,3,13,25,.25,HF,6868,1,29,reporter,uninformative,lie,0,0,1,0,1,0,0,0,0,1,0,,1,0
46,5,,,1,5,5,6,0,0,3,14,30,.3,HF,6868,1,30,reporter,informative,lie,0,0,1,0,1,0,0,0,0,1,0,,1,0
47,5,,,1,5,5,6,1,0,3,15,70,.7,HF,6868,1,31,reporter,uninformative,lie,0,0,1,0,1,0,0,0,1,0,0,1,0,
48,5,,,1,5,5,6,1,1,3,16,66,.66,HF,6868,1,32,reporter,informative,lie,0,0,1,0,1,0,0,0,1,0,0,1,0,
49,5,,,1,5,5,8,0,0,4,1,0,0,HF,6868,1,17,reporter,informative,lie,0,1,1,0,1,0,0,0,0,1,0,,1,0
50,5,,,1,5,5,8,1,1,4,2,55,.55,HF,6868,1,18,reporter,informative,lie,0,1,1,0,1,0,0,0,1,0,0,1,0,
51,5,,,1,5,5,8,1,0,4,3,0,0,HF,6868,1,19,reporter,uninformative,lie,0,1,1,0,1,0,0,0,1,0,0,1,0,
52,5,,,1,5,5,8,1,0,4,4,50,.5,HF,6868,1,20,reporter,uninformative,lie,0,1,1,0,1,0,0,0,1,0,0,1,0,
53,5,,,1,5,5,8,0,0,4,5,15,.15,HF,6868,1,21,reporter,informative,lie,0,1,1,0,1,0,0,0,0,1,0,,1,0
54,5,,,1,5,5,8,1,1,4,6,45,.45,HF,6868,1,22,reporter,uninformative,lie,0,1,1,0,1,0,0,0,1,0,0,1,0,
55,5,,,1,5,5,8,1,1,4,7,77.7,.78,HF,6868,1,23,reporter,uninformative,lie,0,1,1,0,1,0,0,0,1,0,0,1,0,
56,5,,,1,5,5,8,1,1,4,8,55,.55,HF,6868,1,24,reporter,informative,lie,0,1,1,0,1,0,0,0,1,0,0,1,0,
57,5,,,1,5,5,8,1,1,4,9,60,.6,HF,6868,1,25,reporter,uninformative,lie,0,1,1,0,1,0,0,0,1,0,0,1,0,
58,5,,,1,5,5,8,1,1,4,10,70,.7,HF,6868,1,26,reporter,informative,lie,0,1,1,0,1,0,0,0,1,0,0,1,0,
59,5,,,1,5,5,8,1,1,4,11,66,.66,HF,6868,1,27,reporter,informative,lie,0,1,1,0,1,0,0,0,1,0,0,1,0,
60,5,,,1,5,5,8,0,0,4,12,15,.15,HF,6868,1,28,reporter,uninformative,lie,0,1,1,0,1,0,0,0,0,1,0,,1,0
61,5,,,1,5,5,8,1,1,4,13,80,.8,HF,6868,1,29,reporter,uninformative,lie,0,1,1,0,1,0,0,0,1,0,0,1,0,
62,5,,,1,5,5,8,1,0,4,14,80,.8,HF,6868,1,30,reporter,uninformative,lie,0,1,1,0,1,0,0,0,1,0,0,1,0,
63,5,,,1,5,5,8,0,0,4,15,50,.5,HF,6868,1,31,reporter,informative,lie,0,1,1,0,1,0,0,0,0,1,0,,1,0
64,5,,,1,5,5,8,1,1,4,16,80,.8,HF,6868,1,32,reporter,uninformative,lie,0,1,1,0,1,0,0,0,1,0,0,1,0,
1,6,,,1,6,6,6,1,1,1,1,80,.8,HF,6868,1,1,reporter,informative,truth,1,0,0,0,1,0,0,0,1,0,0,1,0,
2,6,,,1,6,6,6,0,0,1,2,40,.4,HF,6868,0,2,reporter,informative,truth,1,0,0,0,1,0,0,1,0,0,0,0,,
3,6,,,1,6,6,6,0,0,1,3,35,.35,HF,6868,0,3,reporter,informative,truth,1,0,0,0,1,0,0,1,0,0,0,0,,
4,6,,,1,6,6,6,1,1,1,4,67,.67,HF,6868,1,4,reporter,uninformative,truth,1,0,0,0,1,0,0,0,1,0,0,1,0,
5,6,,,1,6,6,6,0,0,1,5,75,.75,HF,6868,0,5,reporter,informative,truth,1,0,0,0,1,0,0,1,0,0,0,0,,
6,6,,,1,6,6,6,1,1,1,6,80,.8,HF,6868,1,6,reporter,informative,truth,1,0,0,0,1,0,0,0,1,0,0,1,0,
7,6,,,1,6,6,6,1,1,1,7,80,.8,HF,6868,1,7,reporter,informative,truth,1,0,0,0,1,0,0,0,1,0,0,1,0,
8,6,,,1,6,6,6,1,0,1,8,40,.4,HF,6868,0,8,reporter,uninformative,truth,1,0,0,0,1,0,0,0,0,0,1,,,1
9,6,,,1,6,6,6,1,1,1,9,50,.5,HF,6868,1,9,reporter,informative,truth,1,0,0,0,1,0,0,0,1,0,0,1,0,
10,6,,,1,6,6,6,0,0,1,10,50,.5,HF,6868,0,10,reporter,uninformative,truth,1,0,0,0,1,0,0,1,0,0,0,0,,
11,6,,,1,6,6,6,0,0,1,11,50,.5,HF,6868,0,11,reporter,informative,truth,1,0,0,0,1,0,0,1,0,0,0,0,,
12,6,,,1,6,6,6,1,1,1,12,80,.8,HF,6868,1,12,reporter,informative,truth,1,0,0,0,1,0,0,0,1,0,0,1,0,
13,6,,,1,6,6,6,1,1,1,13,58,.58,HF,6868,1,13,reporter,informative,truth,1,0,0,0,1,0,0,0,1,0,0,1,0,
14,6,,,1,6,6,6,0,0,1,14,40,.4,HF,6868,0,14,reporter,informative,truth,1,0,0,0,1,0,0,1,0,0,0,0,,
15,6,,,1,6,6,6,1,1,1,15,58,.58,HF,6868,1,15,reporter,informative,truth,1,0,0,0,1,0,0,0,1,0,0,1,0,
16,6,,,1,6,6,6,1,1,1,16,75,.75,HF,6868,1,16,reporter,uninformative,truth,1,0,0,0,1,0,0,0,1,0,0,1,0,
17,6,,,1,6,6,8,1,1,2,1,80,.8,HF,6868,1,1,reporter,informative,truth,1,1,0,0,1,0,0,0,1,0,0,1,0,
18,6,,,1,6,6,8,0,0,2,2,50,.5,HF,6868,0,2,reporter,informative,truth,1,1,0,0,1,0,0,1,0,0,0,0,,
19,6,,,1,6,6,8,1,1,2,3,71.33,.71,HF,6868,1,3,reporter,informative,truth,1,1,0,0,1,0,0,0,1,0,0,1,0,
20,6,,,1,6,6,8,1,1,2,4,55,.55,HF,6868,1,4,reporter,uninformative,truth,1,1,0,0,1,0,0,0,1,0,0,1,0,
21,6,,,1,6,6,8,1,1,2,5,80,.8,HF,6868,1,5,reporter,informative,truth,1,1,0,0,1,0,0,0,1,0,0,1,0,
22,6,,,1,6,6,8,1,1,2,6,72,.72,HF,6868,1,6,reporter,uninformative,truth,1,1,0,0,1,0,0,0,1,0,0,1,0,
23,6,,,1,6,6,8,0,1,2,7,50,.5,HF,6868,1,7,reporter,uninformative,truth,1,1,0,0,1,0,0,0,0,1,0,,1,0
24,6,,,1,6,6,8,1,1,2,8,57,.57,HF,6868,1,8,reporter,informative,truth,1,1,0,0,1,0,0,0,1,0,0,1,0,
25,6,,,1,6,6,8,1,1,2,9,50,.5,HF,6868,1,9,reporter,informative,truth,1,1,0,0,1,0,0,0,1,0,0,1,0,
26,6,,,1,6,6,8,1,1,2,10,67,.67,HF,6868,1,10,reporter,informative,truth,1,1,0,0,1,0,0,0,1,0,0,1,0,
27,6,,,1,6,6,8,1,0,2,11,0,0,HF,6868,0,11,reporter,uninformative,truth,1,1,0,0,1,0,0,0,0,0,1,,,1
28,6,,,1,6,6,8,0,1,2,12,52,.52,HF,6868,1,12,reporter,uninformative,truth,1,1,0,0,1,0,0,0,0,1,0,,1,0
29,6,,,1,6,6,8,1,1,2,13,62,.62,HF,6868,1,13,reporter,informative,truth,1,1,0,0,1,0,0,0,1,0,0,1,0,
30,6,,,1,6,6,8,1,1,2,14,50,.5,HF,6868,1,14,reporter,informative,truth,1,1,0,0,1,0,0,0,1,0,0,1,0,
31,6,,,1,6,6,8,0,0,2,15,100,1,HF,6868,0,15,reporter,informative,truth,1,1,0,0,1,0,0,1,0,0,0,0,,
32,6,,,1,6,6,8,1,1,2,16,56,.5600000000000001,HF,6868,1,16,reporter,informative,truth,1,1,0,0,1,0,0,0,1,0,0,1,0,
33,6,,,1,6,6,6,1,1,3,1,57,.57,HF,6868,1,17,reporter,informative,truth,1,0,1,0,1,0,0,0,1,0,0,1,0,
34,6,,,1,6,6,6,1,0,3,2,1,.01,HF,6868,0,18,reporter,uninformative,truth,1,0,1,0,1,0,0,0,0,0,1,,,1
35,6,,,1,6,6,6,1,1,3,3,50,.5,HF,6868,1,19,reporter,informative,truth,1,0,1,0,1,0,0,0,1,0,0,1,0,
36,6,,,1,6,6,6,1,1,3,4,66,.66,HF,6868,1,20,reporter,uninformative,truth,1,0,1,0,1,0,0,0,1,0,0,1,0,
37,6,,,1,6,6,6,0,0,3,5,90,.9,HF,6868,0,21,reporter,informative,truth,1,0,1,0,1,0,0,1,0,0,0,0,,
38,6,,,1,6,6,6,1,1,3,6,64,.64,HF,6868,1,22,reporter,uninformative,truth,1,0,1,0,1,0,0,0,1,0,0,1,0,
39,6,,,1,6,6,6,1,1,3,7,65,.65,HF,6868,1,23,reporter,informative,truth,1,0,1,0,1,0,0,0,1,0,0,1,0,
40,6,,,1,6,6,6,0,0,3,8,50,.5,HF,6868,0,24,reporter,uninformative,truth,1,0,1,0,1,0,0,1,0,0,0,0,,
41,6,,,1,6,6,6,1,1,3,9,73,.73,HF,6868,1,25,reporter,uninformative,truth,1,0,1,0,1,0,0,0,1,0,0,1,0,
42,6,,,1,6,6,6,0,1,3,10,30,.3,HF,6868,1,26,reporter,uninformative,truth,1,0,1,0,1,0,0,0,0,1,0,,1,0
43,6,,,1,6,6,6,0,0,3,11,64,.64,HF,6868,0,27,reporter,informative,truth,1,0,1,0,1,0,0,1,0,0,0,0,,
44,6,,,1,6,6,6,0,0,3,12,66,.66,HF,6868,0,28,reporter,uninformative,truth,1,0,1,0,1,0,0,1,0,0,0,0,,
45,6,,,1,6,6,6,0,0,3,13,65,.65,HF,6868,0,29,reporter,informative,truth,1,0,1,0,1,0,0,1,0,0,0,0,,
46,6,,,1,6,6,6,1,1,3,14,48,.48,HF,6868,1,30,reporter,uninformative,truth,1,0,1,0,1,0,0,0,1,0,0,1,0,
47,6,,,1,6,6,6,1,1,3,15,67,.67,HF,6868,1,31,reporter,informative,truth,1,0,1,0,1,0,0,0,1,0,0,1,0,
48,6,,,1,6,6,6,1,1,3,16,65,.65,HF,6868,1,32,reporter,informative,truth,1,0,1,0,1,0,0,0,1,0,0,1,0,
49,6,,,1,6,6,8,1,1,4,1,55,.55,HF,6868,1,17,reporter,uninformative,truth,1,1,1,0,1,0,0,0,1,0,0,1,0,
50,6,,,1,6,6,8,0,1,4,2,50,.5,HF,6868,1,18,reporter,uninformative,truth,1,1,1,0,1,0,0,0,0,1,0,,1,0
51,6,,,1,6,6,8,1,1,4,3,74.40000000000001,.74,HF,6868,1,19,reporter,uninformative,truth,1,1,1,0,1,0,0,0,1,0,0,1,0,
52,6,,,1,6,6,8,0,0,4,4,60,.6,HF,6868,0,20,reporter,uninformative,truth,1,1,1,0,1,0,0,1,0,0,0,0,,
53,6,,,1,6,6,8,1,1,4,5,77.93000000000001,.78,HF,6868,1,21,reporter,informative,truth,1,1,1,0,1,0,0,0,1,0,0,1,0,
54,6,,,1,6,6,8,0,0,4,6,66.89,.67,HF,6868,0,22,reporter,informative,truth,1,1,1,0,1,0,0,1,0,0,0,0,,
55,6,,,1,6,6,8,1,0,4,7,1,.01,HF,6868,0,23,reporter,uninformative,truth,1,1,1,0,1,0,0,0,0,0,1,,,1
56,6,,,1,6,6,8,1,1,4,8,66,.66,HF,6868,1,24,reporter,informative,truth,1,1,1,0,1,0,0,0,1,0,0,1,0,
57,6,,,1,6,6,8,1,1,4,9,64,.64,HF,6868,1,25,reporter,uninformative,truth,1,1,1,0,1,0,0,0,1,0,0,1,0,
58,6,,,1,6,6,8,1,1,4,10,69,.69,HF,6868,1,26,reporter,informative,truth,1,1,1,0,1,0,0,0,1,0,0,1,0,
59,6,,,1,6,6,8,1,1,4,11,60,.6,HF,6868,1,27,reporter,uninformative,truth,1,1,1,0,1,0,0,0,1,0,0,1,0,
60,6,,,1,6,6,8,1,1,4,12,78.95,.79,HF,6868,1,28,reporter,uninformative,truth,1,1,1,0,1,0,0,0,1,0,0,1,0,
61,6,,,1,6,6,8,1,0,4,13,50,.5,HF,6868,0,29,reporter,uninformative,truth,1,1,1,0,1,0,0,0,0,0,1,,,1
62,6,,,1,6,6,8,1,0,4,14,0,0,HF,6868,0,30,reporter,uninformative,truth,1,1,1,0,1,0,0,0,0,0,1,,,1
63,6,,,1,6,6,8,1,0,4,15,1,.01,HF,6868,0,31,reporter,uninformative,truth,1,1,1,0,1,0,0,0,0,0,1,,,1
64,6,,,1,6,6,8,1,0,4,16,0,0,HF,6868,0,32,reporter,uninformative,truth,1,1,1,0,1,0,0,0,0,0,1,,,1
1,7,,,1,7,7,6,1,0,1,1,33,.33,HF,6868,0,1,reporter,uninformative,truth,1,0,0,0,1,0,0,0,0,0,1,,,1
2,7,,,1,7,7,6,1,0,1,2,23,.23,HF,6868,0,2,reporter,uninformative,truth,1,0,0,0,1,0,0,0,0,0,1,,,1
3,7,,,1,7,7,6,0,0,1,3,60,.6,HF,6868,0,3,reporter,uninformative,truth,1,0,0,0,1,0,0,1,0,0,0,0,,
4,7,,,1,7,7,6,1,1,1,4,70,.7,HF,6868,1,4,reporter,informative,lie,0,0,0,0,1,0,0,0,1,0,0,1,0,
5,7,,,1,7,7,6,1,1,1,5,50,.5,HF,6868,1,5,reporter,informative,lie,0,0,0,0,1,0,0,0,1,0,0,1,0,
6,7,,,1,7,7,6,1,0,1,6,72,.72,HF,6868,1,6,reporter,uninformative,lie,0,0,0,0,1,0,0,0,1,0,0,1,0,
7,7,,,1,7,7,6,1,1,1,7,55,.55,HF,6868,1,7,reporter,uninformative,lie,0,0,0,0,1,0,0,0,1,0,0,1,0,
8,7,,,1,7,7,6,1,1,1,8,64,.64,HF,6868,1,8,reporter,informative,truth,1,0,0,0,1,0,0,0,1,0,0,1,0,
9,7,,,1,7,7,6,1,1,1,9,55,.55,HF,6868,1,9,reporter,informative,lie,0,0,0,0,1,0,0,0,1,0,0,1,0,
10,7,,,1,7,7,6,1,0,1,10,70,.7,HF,6868,1,10,reporter,uninformative,lie,0,0,0,0,1,0,0,0,1,0,0,1,0,
11,7,,,1,7,7,6,0,1,1,11,0,0,HF,6868,1,11,reporter,uninformative,lie,0,0,0,0,1,0,0,0,0,1,0,,1,0
12,7,,,1,7,7,6,0,0,1,12,50,.5,HF,6868,0,12,reporter,informative,truth,1,0,0,0,1,0,0,1,0,0,0,0,,
13,7,,,1,7,7,6,0,0,1,13,50,.5,HF,6868,1,13,reporter,uninformative,lie,0,0,0,0,1,0,0,0,0,1,0,,1,0
14,7,,,1,7,7,6,1,1,1,14,54,.54,HF,6868,1,14,reporter,uninformative,truth,1,0,0,0,1,0,0,0,1,0,0,1,0,
15,7,,,1,7,7,6,1,1,1,15,65,.65,HF,6868,1,15,reporter,informative,truth,1,0,0,0,1,0,0,0,1,0,0,1,0,
16,7,,,1,7,7,6,0,0,1,16,77.93000000000001,.78,HF,6868,0,16,reporter,informative,truth,1,0,0,0,1,0,0,1,0,0,0,0,,
17,7,,,1,7,7,8,1,1,2,1,60,.6,HF,6868,1,1,reporter,informative,lie,0,1,0,0,1,0,0,0,1,0,0,1,0,
18,7,,,1,7,7,8,0,0,2,2,90,.9,HF,6868,0,2,reporter,informative,truth,1,1,0,0,1,0,0,1,0,0,0,0,,
19,7,,,1,7,7,8,0,0,2,3,65,.65,HF,6868,0,3,reporter,informative,truth,1,1,0,0,1,0,0,1,0,0,0,0,,
20,7,,,1,7,7,8,0,0,2,4,40,.4,HF,6868,1,4,reporter,uninformative,lie,0,1,0,0,1,0,0,0,0,1,0,,1,0
21,7,,,1,7,7,8,1,1,2,5,72,.72,HF,6868,1,5,reporter,informative,truth,1,1,0,0,1,0,0,0,1,0,0,1,0,
22,7,,,1,7,7,8,1,1,2,6,0,0,HF,6868,1,6,reporter,uninformative,truth,1,1,0,0,1,0,0,0,1,0,0,1,0,
23,7,,,1,7,7,8,1,0,2,7,66,.66,HF,6868,0,7,reporter,uninformative,truth,1,1,0,0,1,0,0,0,0,0,1,,,1
24,7,,,1,7,7,8,0,0,2,8,76.79000000000001,.77,HF,6868,0,8,reporter,informative,truth,1,1,0,0,1,0,0,1,0,0,0,0,,
25,7,,,1,7,7,8,0,0,2,9,66,.66,HF,6868,0,9,reporter,informative,truth,1,1,0,0,1,0,0,1,0,0,0,0,,
26,7,,,1,7,7,8,1,1,2,10,55,.55,HF,6868,1,10,reporter,informative,lie,0,1,0,0,1,0,0,0,1,0,0,1,0,
27,7,,,1,7,7,8,1,1,2,11,50,.5,HF,6868,1,11,reporter,informative,truth,1,1,0,0,1,0,0,0,1,0,0,1,0,
28,7,,,1,7,7,8,1,1,2,12,55,.55,HF,6868,1,12,reporter,informative,lie,0,1,0,0,1,0,0,0,1,0,0,1,0,
29,7,,,1,7,7,8,1,1,2,13,65,.65,HF,6868,1,13,reporter,uninformative,lie,0,1,0,0,1,0,0,0,1,0,0,1,0,
30,7,,,1,7,7,8,1,1,2,14,62,.62,HF,6868,1,14,reporter,uninformative,truth,1,1,0,0,1,0,0,0,1,0,0,1,0,
31,7,,,1,7,7,8,1,1,2,15,50,.5,HF,6868,1,15,reporter,uninformative,truth,1,1,0,0,1,0,0,0,1,0,0,1,0,
32,7,,,1,7,7,8,1,0,2,16,1,.01,HF,6868,0,16,reporter,uninformative,truth,1,1,0,0,1,0,0,0,0,0,1,,,1
33,7,,,1,7,7,6,1,1,3,1,60,.6,HF,6868,1,17,reporter,informative,lie,0,0,1,0,1,0,0,0,1,0,0,1,0,
34,7,,,1,7,7,6,1,1,3,2,52,.52,HF,6868,1,18,reporter,uninformative,truth,1,0,1,0,1,0,0,0,1,0,0,1,0,
35,7,,,1,7,7,6,1,1,3,3,72.34999999999999,.72,HF,6868,1,19,reporter,informative,truth,1,0,1,0,1,0,0,0,1,0,0,1,0,
36,7,,,1,7,7,6,1,0,3,4,50,.5,HF,6868,0,20,reporter,uninformative,truth,1,0,1,0,1,0,0,0,0,0,1,,,1
37,7,,,1,7,7,6,0,0,3,5,66,.66,HF,6868,0,21,reporter,informative,truth,1,0,1,0,1,0,0,1,0,0,0,0,,
38,7,,,1,7,7,6,0,0,3,6,70,.7,HF,6868,0,22,reporter,informative,truth,1,0,1,0,1,0,0,1,0,0,0,0,,
39,7,,,1,7,7,6,1,1,3,7,40,.4,HF,6868,1,23,reporter,informative,lie,0,0,1,0,1,0,0,0,1,0,0,1,0,
40,7,,,1,7,7,6,0,0,3,8,72,.72,HF,6868,0,24,reporter,informative,truth,1,0,1,0,1,0,0,1,0,0,0,0,,
41,7,,,1,7,7,6,1,1,3,9,50,.5,HF,6868,1,25,reporter,uninformative,truth,1,0,1,0,1,0,0,0,1,0,0,1,0,
42,7,,,1,7,7,6,0,1,3,10,33,.33,HF,6868,1,26,reporter,uninformative,truth,1,0,1,0,1,0,0,0,0,1,0,,1,0
43,7,,,1,7,7,6,1,1,3,11,68.59999999999999,.69,HF,6868,1,27,reporter,informative,truth,1,0,1,0,1,0,0,0,1,0,0,1,0,
44,7,,,1,7,7,6,1,1,3,12,60,.6,HF,6868,1,28,reporter,uninformative,truth,1,0,1,0,1,0,0,0,1,0,0,1,0,
45,7,,,1,7,7,6,0,0,3,13,60,.6,HF,6868,0,29,reporter,informative,truth,1,0,1,0,1,0,0,1,0,0,0,0,,
46,7,,,1,7,7,6,1,1,3,14,65,.65,HF,6868,1,30,reporter,informative,truth,1,0,1,0,1,0,0,0,1,0,0,1,0,
47,7,,,1,7,7,6,0,1,3,15,45,.45,HF,6868,1,31,reporter,uninformative,truth,1,0,1,0,1,0,0,0,0,1,0,,1,0
48,7,,,1,7,7,6,0,0,3,16,50,.5,HF,6868,0,32,reporter,informative,truth,1,0,1,0,1,0,0,1,0,0,0,0,,
49,7,,,1,7,7,8,1,1,4,1,60,.6,HF,6868,1,17,reporter,uninformative,truth,1,1,1,0,1,0,0,0,1,0,0,1,0,
50,7,,,1,7,7,8,1,1,4,2,64,.64,HF,6868,1,18,reporter,informative,truth,1,1,1,0,1,0,0,0,1,0,0,1,0,
51,7,,,1,7,7,8,1,1,4,3,50,.5,HF,6868,1,19,reporter,informative,truth,1,1,1,0,1,0,0,0,1,0,0,1,0,
52,7,,,1,7,7,8,1,1,4,4,50,.5,HF,6868,1,20,reporter,informative,lie,0,1,1,0,1,0,0,0,1,0,0,1,0,
53,7,,,1,7,7,8,1,0,4,5,65,.65,HF,6868,1,21,reporter,uninformative,lie,0,1,1,0,1,0,0,0,1,0,0,1,0,
54,7,,,1,7,7,8,1,1,4,6,52,.52,HF,6868,1,22,reporter,informative,truth,1,1,1,0,1,0,0,0,1,0,0,1,0,
55,7,,,1,7,7,8,1,1,4,7,64,.64,HF,6868,1,23,reporter,informative,truth,1,1,1,0,1,0,0,0,1,0,0,1,0,
56,7,,,1,7,7,8,0,0,4,8,25,.25,HF,6868,1,24,reporter,informative,lie,0,1,1,0,1,0,0,0,0,1,0,,1,0
57,7,,,1,7,7,8,1,1,4,9,66,.66,HF,6868,1,25,reporter,informative,lie,0,1,1,0,1,0,0,0,1,0,0,1,0,
58,7,,,1,7,7,8,1,0,4,10,50,.5,HF,6868,1,26,reporter,uninformative,lie,0,1,1,0,1,0,0,0,1,0,0,1,0,
59,7,,,1,7,7,8,1,0,4,11,45,.45,HF,6868,0,27,reporter,uninformative,truth,1,1,1,0,1,0,0,0,0,0,1,,,1
60,7,,,1,7,7,8,0,0,4,12,75,.75,HF,6868,0,28,reporter,informative,truth,1,1,1,0,1,0,0,1,0,0,0,0,,
61,7,,,1,7,7,8,1,1,4,13,80.04000000000001,.8,HF,6868,1,29,reporter,informative,truth,1,1,1,0,1,0,0,0,1,0,0,1,0,
62,7,,,1,7,7,8,1,1,4,14,80.04000000000001,.8,HF,6868,1,30,reporter,informative,truth,1,1,1,0,1,0,0,0,1,0,0,1,0,
63,7,,,1,7,7,8,1,0,4,15,50,.5,HF,6868,0,31,reporter,uninformative,truth,1,1,1,0,1,0,0,0,0,0,1,,,1
64,7,,,1,7,7,8,1,1,4,16,55,.55,HF,6868,1,32,reporter,informative,truth,1,1,1,0,1,0,0,0,1,0,0,1,0,
1,8,,,1,8,8,6,1,1,1,1,35,.35,HF,6868,1,1,reporter,informative,lie,0,0,0,0,1,0,0,0,1,0,0,1,0,
2,8,,,1,8,8,6,1,1,1,2,65,.65,HF,6868,1,2,reporter,informative,lie,0,0,0,0,1,0,0,0,1,0,0,1,0,
3,8,,,1,8,8,6,1,0,1,3,95,.95,HF,6868,1,3,reporter,uninformative,lie,0,0,0,0,1,0,0,0,1,0,0,1,0,
4,8,,,1,8,8,6,0,0,1,4,50,.5,HF,6868,1,4,reporter,informative,lie,0,0,0,0,1,0,0,0,0,1,0,,1,0
5,8,,,1,8,8,6,0,0,1,5,60,.6,HF,6868,1,5,reporter,uninformative,lie,0,0,0,0,1,0,0,0,0,1,0,,1,0
6,8,,,1,8,8,6,0,0,1,6,40,.4,HF,6868,1,6,reporter,uninformative,lie,0,0,0,0,1,0,0,0,0,1,0,,1,0
7,8,,,1,8,8,6,0,0,1,7,40,.4,HF,6868,1,7,reporter,uninformative,lie,0,0,0,0,1,0,0,0,0,1,0,,1,0
8,8,,,1,8,8,6,1,1,1,8,55,.55,HF,6868,1,8,reporter,informative,lie,0,0,0,0,1,0,0,0,1,0,0,1,0,
9,8,,,1,8,8,6,1,1,1,9,70,.7,HF,6868,1,9,reporter,uninformative,lie,0,0,0,0,1,0,0,0,1,0,0,1,0,
10,8,,,1,8,8,6,1,1,1,10,66,.66,HF,6868,1,10,reporter,informative,lie,0,0,0,0,1,0,0,0,1,0,0,1,0,
11,8,,,1,8,8,6,0,0,1,11,40,.4,HF,6868,1,11,reporter,uninformative,lie,0,0,0,0,1,0,0,0,0,1,0,,1,0
12,8,,,1,8,8,6,1,1,1,12,100,1,HF,6868,1,12,reporter,informative,lie,0,0,0,0,1,0,0,0,1,0,0,1,0,
13,8,,,1,8,8,6,1,1,1,13,50,.5,HF,6868,1,13,reporter,informative,lie,0,0,0,0,1,0,0,0,1,0,0,1,0,
14,8,,,1,8,8,6,0,0,1,14,25,.25,HF,6868,1,14,reporter,informative,lie,0,0,0,0,1,0,0,0,0,1,0,,1,0
15,8,,,1,8,8,6,1,0,1,15,60,.6,HF,6868,1,15,reporter,uninformative,lie,0,0,0,0,1,0,0,0,1,0,0,1,0,
16,8,,,1,8,8,6,1,0,1,16,98,.98,HF,6868,1,16,reporter,uninformative,lie,0,0,0,0,1,0,0,0,1,0,0,1,0,
17,8,,,1,8,8,8,1,1,2,1,56.88,.57,HF,6868,1,1,reporter,informative,lie,0,1,0,0,1,0,0,0,1,0,0,1,0,
18,8,,,1,8,8,8,1,1,2,2,68.83,.69,HF,6868,1,2,reporter,informative,lie,0,1,0,0,1,0,0,0,1,0,0,1,0,
19,8,,,1,8,8,8,1,1,2,3,85,.85,HF,6868,1,3,reporter,informative,lie,0,1,0,0,1,0,0,0,1,0,0,1,0,
20,8,,,1,8,8,8,1,0,2,4,55,.55,HF,6868,1,4,reporter,uninformative,lie,0,1,0,0,1,0,0,0,1,0,0,1,0,
21,8,,,1,8,8,8,1,1,2,5,0,0,HF,6868,1,5,reporter,informative,lie,0,1,0,0,1,0,0,0,1,0,0,1,0,
22,8,,,1,8,8,8,0,1,2,6,10,.1,HF,6868,1,6,reporter,uninformative,lie,0,1,0,0,1,0,0,0,0,1,0,,1,0
23,8,,,1,8,8,8,1,0,2,7,56,.5600000000000001,HF,6868,1,7,reporter,uninformative,lie,0,1,0,0,1,0,0,0,1,0,0,1,0,
24,8,,,1,8,8,8,1,1,2,8,65,.65,HF,6868,1,8,reporter,informative,lie,0,1,0,0,1,0,0,0,1,0,0,1,0,
25,8,,,1,8,8,8,1,1,2,9,75,.75,HF,6868,1,9,reporter,informative,lie,0,1,0,0,1,0,0,0,1,0,0,1,0,
26,8,,,1,8,8,8,1,0,2,10,50,.5,HF,6868,1,10,reporter,uninformative,lie,0,1,0,0,1,0,0,0,1,0,0,1,0,
27,8,,,1,8,8,8,1,1,2,11,46,.46,HF,6868,1,11,reporter,uninformative,lie,0,1,0,0,1,0,0,0,1,0,0,1,0,
28,8,,,1,8,8,8,1,1,2,12,50,.5,HF,6868,1,12,reporter,informative,lie,0,1,0,0,1,0,0,0,1,0,0,1,0,
29,8,,,1,8,8,8,0,0,2,13,30,.3,HF,6868,1,13,reporter,informative,lie,0,1,0,0,1,0,0,0,0,1,0,,1,0
30,8,,,1,8,8,8,1,1,2,14,55,.55,HF,6868,1,14,reporter,informative,lie,0,1,0,0,1,0,0,0,1,0,0,1,0,
31,8,,,1,8,8,8,1,1,2,15,50,.5,HF,6868,1,15,reporter,uninformative,lie,0,1,0,0,1,0,0,0,1,0,0,1,0,
32,8,,,1,8,8,8,0,0,2,16,56,.5600000000000001,HF,6868,1,16,reporter,informative,lie,0,1,0,0,1,0,0,0,0,1,0,,1,0
33,8,,,1,8,8,6,0,0,3,1,15.13,.15,HF,6868,1,17,reporter,informative,lie,0,0,1,0,1,0,0,0,0,1,0,,1,0
34,8,,,1,8,8,6,1,1,3,2,40,.4,HF,6868,1,18,reporter,uninformative,lie,0,0,1,0,1,0,0,0,1,0,0,1,0,
35,8,,,1,8,8,6,1,0,3,3,57,.57,HF,6868,1,19,reporter,uninformative,lie,0,0,1,0,1,0,0,0,1,0,0,1,0,
36,8,,,1,8,8,6,1,1,3,4,33,.33,HF,6868,1,20,reporter,informative,lie,0,0,1,0,1,0,0,0,1,0,0,1,0,
37,8,,,1,8,8,6,1,1,3,5,54,.54,HF,6868,1,21,reporter,informative,lie,0,0,1,0,1,0,0,0,1,0,0,1,0,
38,8,,,1,8,8,6,0,0,3,6,40,.4,HF,6868,1,22,reporter,uninformative,lie,0,0,1,0,1,0,0,0,0,1,0,,1,0
39,8,,,1,8,8,6,0,0,3,7,50,.5,HF,6868,1,23,reporter,informative,lie,0,0,1,0,1,0,0,0,0,1,0,,1,0
40,8,,,1,8,8,6,1,1,3,8,64,.64,HF,6868,1,24,reporter,uninformative,lie,0,0,1,0,1,0,0,0,1,0,0,1,0,
41,8,,,1,8,8,6,0,1,3,9,60,.6,HF,6868,1,25,reporter,uninformative,lie,0,0,1,0,1,0,0,0,0,1,0,,1,0
42,8,,,1,8,8,6,1,1,3,10,77,.77,HF,6868,1,26,reporter,uninformative,lie,0,0,1,0,1,0,0,0,1,0,0,1,0,
43,8,,,1,8,8,6,0,0,3,11,50,.5,HF,6868,1,27,reporter,informative,lie,0,0,1,0,1,0,0,0,0,1,0,,1,0
44,8,,,1,8,8,6,1,1,3,12,55,.55,HF,6868,1,28,reporter,uninformative,lie,0,0,1,0,1,0,0,0,1,0,0,1,0,
45,8,,,1,8,8,6,1,0,3,13,77.7,.78,HF,6868,1,29,reporter,uninformative,lie,0,0,1,0,1,0,0,0,1,0,0,1,0,
46,8,,,1,8,8,6,1,1,3,14,64,.64,HF,6868,1,30,reporter,uninformative,lie,0,0,1,0,1,0,0,0,1,0,0,1,0,
47,8,,,1,8,8,6,1,1,3,15,60,.6,HF,6868,1,31,reporter,uninformative,lie,0,0,1,0,1,0,0,0,1,0,0,1,0,
48,8,,,1,8,8,6,0,0,3,16,0,0,HF,6868,1,32,reporter,informative,lie,0,0,1,0,1,0,0,0,0,1,0,,1,0
49,8,,,1,8,8,8,1,1,4,1,60,.6,HF,6868,1,17,reporter,informative,lie,0,1,1,0,1,0,0,0,1,0,0,1,0,
50,8,,,1,8,8,8,0,1,4,2,15,.15,HF,6868,1,18,reporter,uninformative,lie,0,1,1,0,1,0,0,0,0,1,0,,1,0
51,8,,,1,8,8,8,1,1,4,3,56,.5600000000000001,HF,6868,1,19,reporter,informative,lie,0,1,1,0,1,0,0,0,1,0,0,1,0,
52,8,,,1,8,8,8,1,1,4,4,77.59,.78,HF,6868,1,20,reporter,informative,lie,0,1,1,0,1,0,0,0,1,0,0,1,0,
53,8,,,1,8,8,8,1,1,4,5,55,.55,HF,6868,1,21,reporter,informative,lie,0,1,1,0,1,0,0,0,1,0,0,1,0,
54,8,,,1,8,8,8,0,0,4,6,15,.15,HF,6868,1,22,reporter,informative,lie,0,1,1,0,1,0,0,0,0,1,0,,1,0
55,8,,,1,8,8,8,0,0,4,7,33,.33,HF,6868,1,23,reporter,informative,lie,0,1,1,0,1,0,0,0,0,1,0,,1,0
56,8,,,1,8,8,8,1,1,4,8,50,.5,HF,6868,1,24,reporter,informative,lie,0,1,1,0,1,0,0,0,1,0,0,1,0,
57,8,,,1,8,8,8,0,0,4,9,20.01,.2,HF,6868,1,25,reporter,informative,lie,0,1,1,0,1,0,0,0,0,1,0,,1,0
58,8,,,1,8,8,8,1,0,4,10,55,.55,HF,6868,1,26,reporter,uninformative,lie,0,1,1,0,1,0,0,0,1,0,0,1,0,
59,8,,,1,8,8,8,1,0,4,11,80,.8,HF,6868,1,27,reporter,uninformative,lie,0,1,1,0,1,0,0,0,1,0,0,1,0,
60,8,,,1,8,8,8,1,1,4,12,50,.5,HF,6868,1,28,reporter,informative,lie,0,1,1,0,1,0,0,0,1,0,0,1,0,
61,8,,,1,8,8,8,1,1,4,13,57,.57,HF,6868,1,29,reporter,informative,lie,0,1,1,0,1,0,0,0,1,0,0,1,0,
62,8,,,1,8,8,8,0,0,4,14,15,.15,HF,6868,1,30,reporter,informative,lie,0,1,1,0,1,0,0,0,0,1,0,,1,0
63,8,,,1,8,8,8,1,1,4,15,66,.66,HF,6868,1,31,reporter,informative,lie,0,1,1,0,1,0,0,0,1,0,0,1,0,
64,8,,,1,8,8,8,1,0,4,16,57,.57,HF,6868,1,32,reporter,uninformative,lie,0,1,1,0,1,0,0,0,1,0,0,1,0,
1,9,,,1,9,9,6,1,1,1,1,80,.8,HF,6868,1,1,reporter,informative,lie,0,0,0,0,1,0,0,0,1,0,0,1,0,
2,9,,,1,9,9,6,0,1,1,2,55,.55,HF,6868,1,2,reporter,uninformative,lie,0,0,0,0,1,0,0,0,0,1,0,,1,0
3,9,,,1,9,9,6,1,1,1,3,80,.8,HF,6868,1,3,reporter,uninformative,truth,1,0,0,0,1,0,0,0,1,0,0,1,0,
4,9,,,1,9,9,6,1,0,1,4,59.04,.59,HF,6868,1,4,reporter,uninformative,lie,0,0,0,0,1,0,0,0,1,0,0,1,0,
5,9,,,1,9,9,6,1,1,1,5,40,.4,HF,6868,1,5,reporter,uninformative,truth,1,0,0,0,1,0,0,0,1,0,0,1,0,
6,9,,,1,9,9,6,1,1,1,6,60,.6,HF,6868,1,6,reporter,uninformative,lie,0,0,0,0,1,0,0,0,1,0,0,1,0,
7,9,,,1,9,9,6,1,1,1,7,50,.5,HF,6868,1,7,reporter,informative,lie,0,0,0,0,1,0,0,0,1,0,0,1,0,
8,9,,,1,9,9,6,1,0,1,8,66.66,.67,HF,6868,1,8,reporter,uninformative,lie,0,0,0,0,1,0,0,0,1,0,0,1,0,
9,9,,,1,9,9,6,0,1,1,9,0,0,HF,6868,1,9,reporter,uninformative,truth,1,0,0,0,1,0,0,0,0,1,0,,1,0
10,9,,,1,9,9,6,1,0,1,10,65,.65,HF,6868,1,10,reporter,uninformative,lie,0,0,0,0,1,0,0,0,1,0,0,1,0,
11,9,,,1,9,9,6,1,1,1,11,50,.5,HF,6868,1,11,reporter,uninformative,lie,0,0,0,0,1,0,0,0,1,0,0,1,0,
12,9,,,1,9,9,6,1,1,1,12,55,.55,HF,6868,1,12,reporter,uninformative,lie,0,0,0,0,1,0,0,0,1,0,0,1,0,
13,9,,,1,9,9,6,0,0,1,13,20,.2,HF,6868,1,13,reporter,informative,lie,0,0,0,0,1,0,0,0,0,1,0,,1,0
14,9,,,1,9,9,6,1,1,1,14,45,.45,HF,6868,1,14,reporter,informative,truth,1,0,0,0,1,0,0,0,1,0,0,1,0,
15,9,,,1,9,9,6,1,1,1,15,55,.55,HF,6868,1,15,reporter,informative,truth,1,0,0,0,1,0,0,0,1,0,0,1,0,
16,9,,,1,9,9,6,1,1,1,16,50,.5,HF,6868,1,16,reporter,informative,lie,0,0,0,0,1,0,0,0,1,0,0,1,0,
17,9,,,1,9,9,8,1,1,2,1,71,.71,HF,6868,1,1,reporter,uninformative,truth,1,1,0,0,1,0,0,0,1,0,0,1,0,
18,9,,,1,9,9,8,1,1,2,2,60,.6,HF,6868,1,2,reporter,informative,truth,1,1,0,0,1,0,0,0,1,0,0,1,0,
19,9,,,1,9,9,8,1,1,2,3,60,.6,HF,6868,1,3,reporter,informative,truth,1,1,0,0,1,0,0,0,1,0,0,1,0,
20,9,,,1,9,9,8,1,1,2,4,50,.5,HF,6868,1,4,reporter,uninformative,lie,0,1,0,0,1,0,0,0,1,0,0,1,0,
21,9,,,1,9,9,8,0,0,2,5,50,.5,HF,6868,1,5,reporter,informative,lie,0,1,0,0,1,0,0,0,0,1,0,,1,0
22,9,,,1,9,9,8,1,1,2,6,65.53,.66,HF,6868,1,6,reporter,informative,lie,0,1,0,0,1,0,0,0,1,0,0,1,0,
23,9,,,1,9,9,8,1,0,2,7,60,.6,HF,6868,1,7,reporter,uninformative,lie,0,1,0,0,1,0,0,0,1,0,0,1,0,
24,9,,,1,9,9,8,1,1,2,8,60,.6,HF,6868,1,8,reporter,informative,lie,0,1,0,0,1,0,0,0,1,0,0,1,0,
25,9,,,1,9,9,8,0,0,2,9,40,.4,HF,6868,0,9,reporter,informative,truth,1,1,0,0,1,0,0,1,0,0,0,0,,
26,9,,,1,9,9,8,1,1,2,10,78.38,.78,HF,6868,1,10,reporter,informative,lie,0,1,0,0,1,0,0,0,1,0,0,1,0,
27,9,,,1,9,9,8,1,0,2,11,75,.75,HF,6868,1,11,reporter,uninformative,lie,0,1,0,0,1,0,0,0,1,0,0,1,0,
28,9,,,1,9,9,8,1,0,2,12,65,.65,HF,6868,1,12,reporter,uninformative,lie,0,1,0,0,1,0,0,0,1,0,0,1,0,
29,9,,,1,9,9,8,1,1,2,13,79.06999999999999,.79,HF,6868,1,13,reporter,informative,lie,0,1,0,0,1,0,0,0,1,0,0,1,0,
30,9,,,1,9,9,8,0,0,2,14,15,.15,HF,6868,1,14,reporter,informative,lie,0,1,0,0,1,0,0,0,0,1,0,,1,0
31,9,,,1,9,9,8,1,1,2,15,58,.58,HF,6868,1,15,reporter,informative,lie,0,1,0,0,1,0,0,0,1,0,0,1,0,
32,9,,,1,9,9,8,1,0,2,16,0,0,HF,6868,0,16,reporter,uninformative,truth,1,1,0,0,1,0,0,0,0,0,1,,,1
33,9,,,1,9,9,6,0,1,3,1,44,.44,HF,6868,1,17,reporter,uninformative,lie,0,0,1,0,1,0,0,0,0,1,0,,1,0
34,9,,,1,9,9,6,1,1,3,2,50,.5,HF,6868,1,18,reporter,uninformative,lie,0,0,1,0,1,0,0,0,1,0,0,1,0,
35,9,,,1,9,9,6,0,0,3,3,50,.5,HF,6868,1,19,reporter,uninformative,lie,0,0,1,0,1,0,0,0,0,1,0,,1,0
36,9,,,1,9,9,6,1,0,3,4,64,.64,HF,6868,1,20,reporter,uninformative,lie,0,0,1,0,1,0,0,0,1,0,0,1,0,
37,9,,,1,9,9,6,1,1,3,5,25,.25,HF,6868,1,21,reporter,uninformative,lie,0,0,1,0,1,0,0,0,1,0,0,1,0,
38,9,,,1,9,9,6,1,1,3,6,55,.55,HF,6868,1,22,reporter,informative,lie,0,0,1,0,1,0,0,0,1,0,0,1,0,
39,9,,,1,9,9,6,1,1,3,7,56,.5600000000000001,HF,6868,1,23,reporter,informative,lie,0,0,1,0,1,0,0,0,1,0,0,1,0,
40,9,,,1,9,9,6,1,1,3,8,65,.65,HF,6868,1,24,reporter,informative,lie,0,0,1,0,1,0,0,0,1,0,0,1,0,
41,9,,,1,9,9,6,1,1,3,9,50,.5,HF,6868,1,25,reporter,informative,lie,0,0,1,0,1,0,0,0,1,0,0,1,0,
42,9,,,1,9,9,6,1,1,3,10,68,.6800000000000001,HF,6868,1,26,reporter,informative,lie,0,0,1,0,1,0,0,0,1,0,0,1,0,
43,9,,,1,9,9,6,0,0,3,11,50,.5,HF,6868,1,27,reporter,informative,lie,0,0,1,0,1,0,0,0,0,1,0,,1,0
44,9,,,1,9,9,6,1,1,3,12,58,.58,HF,6868,1,28,reporter,informative,lie,0,0,1,0,1,0,0,0,1,0,0,1,0,
45,9,,,1,9,9,6,0,1,3,13,0,0,HF,6868,1,29,reporter,uninformative,lie,0,0,1,0,1,0,0,0,0,1,0,,1,0
46,9,,,1,9,9,6,0,1,3,14,55,.55,HF,6868,1,30,reporter,uninformative,lie,0,0,1,0,1,0,0,0,0,1,0,,1,0
47,9,,,1,9,9,6,1,1,3,15,64,.64,HF,6868,1,31,reporter,informative,lie,0,0,1,0,1,0,0,0,1,0,0,1,0,
48,9,,,1,9,9,6,0,1,3,16,15,.15,HF,6868,1,32,reporter,uninformative,lie,0,0,1,0,1,0,0,0,0,1,0,,1,0
49,9,,,1,9,9,8,1,0,4,1,60,.6,HF,6868,1,17,reporter,uninformative,lie,0,1,1,0,1,0,0,0,1,0,0,1,0,
50,9,,,1,9,9,8,1,1,4,2,70,.7,HF,6868,1,18,reporter,informative,lie,0,1,1,0,1,0,0,0,1,0,0,1,0,
51,9,,,1,9,9,8,1,0,4,3,50,.5,HF,6868,1,19,reporter,uninformative,lie,0,1,1,0,1,0,0,0,1,0,0,1,0,
52,9,,,1,9,9,8,1,1,4,4,70,.7,HF,6868,1,20,reporter,uninformative,lie,0,1,1,0,1,0,0,0,1,0,0,1,0,
53,9,,,1,9,9,8,1,1,4,5,64,.64,HF,6868,1,21,reporter,informative,lie,0,1,1,0,1,0,0,0,1,0,0,1,0,
54,9,,,1,9,9,8,1,1,4,6,64,.64,HF,6868,1,22,reporter,informative,lie,0,1,1,0,1,0,0,0,1,0,0,1,0,
55,9,,,1,9,9,8,1,0,4,7,80,.8,HF,6868,1,23,reporter,uninformative,lie,0,1,1,0,1,0,0,0,1,0,0,1,0,
56,9,,,1,9,9,8,1,1,4,8,80,.8,HF,6868,1,24,reporter,informative,lie,0,1,1,0,1,0,0,0,1,0,0,1,0,
57,9,,,1,9,9,8,1,0,4,9,50,.5,HF,6868,1,25,reporter,uninformative,lie,0,1,1,0,1,0,0,0,1,0,0,1,0,
58,9,,,1,9,9,8,1,0,4,10,65,.65,HF,6868,1,26,reporter,uninformative,lie,0,1,1,0,1,0,0,0,1,0,0,1,0,
59,9,,,1,9,9,8,1,0,4,11,55,.55,HF,6868,1,27,reporter,uninformative,lie,0,1,1,0,1,0,0,0,1,0,0,1,0,
60,9,,,1,9,9,8,1,1,4,12,68,.6800000000000001,HF,6868,1,28,reporter,informative,lie,0,1,1,0,1,0,0,0,1,0,0,1,0,
61,9,,,1,9,9,8,1,1,4,13,66,.66,HF,6868,1,29,reporter,informative,lie,0,1,1,0,1,0,0,0,1,0,0,1,0,
62,9,,,1,9,9,8,1,0,4,14,53,.53,HF,6868,1,30,reporter,uninformative,lie,0,1,1,0,1,0,0,0,1,0,0,1,0,
63,9,,,1,9,9,8,0,1,4,15,50,.5,HF,6868,1,31,reporter,uninformative,lie,0,1,1,0,1,0,0,0,0,1,0,,1,0
64,9,,,1,9,9,8,1,1,4,16,64,.64,HF,6868,1,32,reporter,informative,lie,0,1,1,0,1,0,0,0,1,0,0,1,0,
1,10,,,1,10,10,6,1,1,1,1,0,0,HF,6868,1,1,reporter,informative,truth,1,0,0,0,1,0,0,0,1,0,0,1,0,
2,10,,,1,10,10,6,1,1,1,2,80,.8,HF,6868,1,2,reporter,informative,truth,1,0,0,0,1,0,0,0,1,0,0,1,0,
3,10,,,1,10,10,6,1,0,1,3,60,.6,HF,6868,1,3,reporter,uninformative,lie,0,0,0,0,1,0,0,0,1,0,0,1,0,
4,10,,,1,10,10,6,1,1,1,4,40,.4,HF,6868,1,4,reporter,informative,truth,1,0,0,0,1,0,0,0,1,0,0,1,0,
5,10,,,1,10,10,6,0,1,1,5,21.84,.22,HF,6868,1,5,reporter,uninformative,lie,0,0,0,0,1,0,0,0,0,1,0,,1,0
6,10,,,1,10,10,6,0,0,1,6,15,.15,HF,6868,1,6,reporter,informative,lie,0,0,0,0,1,0,0,0,0,1,0,,1,0
7,10,,,1,10,10,6,1,1,1,7,82,.82,HF,6868,1,7,reporter,uninformative,truth,1,0,0,0,1,0,0,0,1,0,0,1,0,
8,10,,,1,10,10,6,0,0,1,8,63.82,.64,HF,6868,0,8,reporter,uninformative,truth,1,0,0,0,1,0,0,1,0,0,0,0,,
9,10,,,1,10,10,6,0,0,1,9,65,.65,HF,6868,0,9,reporter,informative,truth,1,0,0,0,1,0,0,1,0,0,0,0,,
10,10,,,1,10,10,6,0,0,1,10,65,.65,HF,6868,0,10,reporter,informative,truth,1,0,0,0,1,0,0,1,0,0,0,0,,
11,10,,,1,10,10,6,1,1,1,11,67,.67,HF,6868,1,11,reporter,informative,truth,1,0,0,0,1,0,0,0,1,0,0,1,0,
12,10,,,1,10,10,6,1,1,1,12,65,.65,HF,6868,1,12,reporter,informative,truth,1,0,0,0,1,0,0,0,1,0,0,1,0,
13,10,,,1,10,10,6,1,1,1,13,10,.1,HF,6868,1,13,reporter,uninformative,truth,1,0,0,0,1,0,0,0,1,0,0,1,0,
14,10,,,1,10,10,6,0,0,1,14,50,.5,HF,6868,0,14,reporter,informative,truth,1,0,0,0,1,0,0,1,0,0,0,0,,
15,10,,,1,10,10,6,1,1,1,15,58,.58,HF,6868,1,15,reporter,uninformative,truth,1,0,0,0,1,0,0,0,1,0,0,1,0,
16,10,,,1,10,10,6,1,1,1,16,65,.65,HF,6868,1,16,reporter,informative,truth,1,0,0,0,1,0,0,0,1,0,0,1,0,
17,10,,,1,10,10,8,0,1,2,1,50,.5,HF,6868,1,1,reporter,uninformative,lie,0,1,0,0,1,0,0,0,0,1,0,,1,0
18,10,,,1,10,10,8,1,1,2,2,80,.8,HF,6868,1,2,reporter,informative,lie,0,1,0,0,1,0,0,0,1,0,0,1,0,
19,10,,,1,10,10,8,0,1,2,3,15,.15,HF,6868,1,3,reporter,uninformative,lie,0,1,0,0,1,0,0,0,0,1,0,,1,0
20,10,,,1,10,10,8,1,0,2,4,50,.5,HF,6868,1,4,reporter,uninformative,lie,0,1,0,0,1,0,0,0,1,0,0,1,0,
21,10,,,1,10,10,8,0,0,2,5,21.73,.22,HF,6868,1,5,reporter,uninformative,lie,0,1,0,0,1,0,0,0,0,1,0,,1,0
22,10,,,1,10,10,8,1,1,2,6,50,.5,HF,6868,1,6,reporter,informative,truth,1,1,0,0,1,0,0,0,1,0,0,1,0,
23,10,,,1,10,10,8,1,1,2,7,80,.8,HF,6868,1,7,reporter,informative,truth,1,1,0,0,1,0,0,0,1,0,0,1,0,
24,10,,,1,10,10,8,1,1,2,8,50,.5,HF,6868,1,8,reporter,informative,lie,0,1,0,0,1,0,0,0,1,0,0,1,0,
25,10,,,1,10,10,8,1,1,2,9,55,.55,HF,6868,1,9,reporter,uninformative,lie,0,1,0,0,1,0,0,0,1,0,0,1,0,
26,10,,,1,10,10,8,1,1,2,10,75,.75,HF,6868,1,10,reporter,uninformative,lie,0,1,0,0,1,0,0,0,1,0,0,1,0,
27,10,,,1,10,10,8,0,0,2,11,30,.3,HF,6868,1,11,reporter,uninformative,lie,0,1,0,0,1,0,0,0,0,1,0,,1,0
28,10,,,1,10,10,8,1,1,2,12,60,.6,HF,6868,1,12,reporter,informative,lie,0,1,0,0,1,0,0,0,1,0,0,1,0,
29,10,,,1,10,10,8,0,0,2,13,50,.5,HF,6868,1,13,reporter,informative,lie,0,1,0,0,1,0,0,0,0,1,0,,1,0
30,10,,,1,10,10,8,1,1,2,14,78,.78,HF,6868,1,14,reporter,uninformative,lie,0,1,0,0,1,0,0,0,1,0,0,1,0,
31,10,,,1,10,10,8,1,1,2,15,60,.6,HF,6868,1,15,reporter,uninformative,lie,0,1,0,0,1,0,0,0,1,0,0,1,0,
32,10,,,1,10,10,8,0,0,2,16,26.51,.27,HF,6868,1,16,reporter,uninformative,lie,0,1,0,0,1,0,0,0,0,1,0,,1,0
33,10,,,1,10,10,6,1,1,3,1,65,.65,HF,6868,1,17,reporter,informative,truth,1,0,1,0,1,0,0,0,1,0,0,1,0,
34,10,,,1,10,10,6,1,1,3,2,65,.65,HF,6868,1,18,reporter,informative,truth,1,0,1,0,1,0,0,0,1,0,0,1,0,
35,10,,,1,10,10,6,1,1,3,3,72,.72,HF,6868,1,19,reporter,informative,truth,1,0,1,0,1,0,0,0,1,0,0,1,0,
36,10,,,1,10,10,6,1,1,3,4,81,.8100000000000001,HF,6868,1,20,reporter,informative,truth,1,0,1,0,1,0,0,0,1,0,0,1,0,
37,10,,,1,10,10,6,1,1,3,5,50,.5,HF,6868,1,21,reporter,uninformative,truth,1,0,1,0,1,0,0,0,1,0,0,1,0,
38,10,,,1,10,10,6,1,1,3,6,70,.7,HF,6868,1,22,reporter,uninformative,truth,1,0,1,0,1,0,0,0,1,0,0,1,0,
39,10,,,1,10,10,6,1,1,3,7,80,.8,HF,6868,1,23,reporter,uninformative,truth,1,0,1,0,1,0,0,0,1,0,0,1,0,
40,10,,,1,10,10,6,1,1,3,8,74.86,.75,HF,6868,1,24,reporter,informative,truth,1,0,1,0,1,0,0,0,1,0,0,1,0,
41,10,,,1,10,10,6,0,0,3,9,66,.66,HF,6868,0,25,reporter,uninformative,truth,1,0,1,0,1,0,0,1,0,0,0,0,,
42,10,,,1,10,10,6,0,0,3,10,66,.66,HF,6868,0,26,reporter,informative,truth,1,0,1,0,1,0,0,1,0,0,0,0,,
43,10,,,1,10,10,6,0,0,3,11,70,.7,HF,6868,0,27,reporter,informative,truth,1,0,1,0,1,0,0,1,0,0,0,0,,
44,10,,,1,10,10,6,0,0,3,12,70,.7,HF,6868,0,28,reporter,informative,truth,1,0,1,0,1,0,0,1,0,0,0,0,,
45,10,,,1,10,10,6,0,0,3,13,70,.7,HF,6868,0,29,reporter,informative,truth,1,0,1,0,1,0,0,1,0,0,0,0,,
46,10,,,1,10,10,6,0,0,3,14,70,.7,HF,6868,0,30,reporter,uninformative,truth,1,0,1,0,1,0,0,1,0,0,0,0,,
47,10,,,1,10,10,6,1,1,3,15,65,.65,HF,6868,1,31,reporter,informative,truth,1,0,1,0,1,0,0,0,1,0,0,1,0,
48,10,,,1,10,10,6,1,1,3,16,62,.62,HF,6868,1,32,reporter,informative,truth,1,0,1,0,1,0,0,0,1,0,0,1,0,
49,10,,,1,10,10,8,1,1,4,1,65,.65,HF,6868,1,17,reporter,uninformative,lie,0,1,1,0,1,0,0,0,1,0,0,1,0,
50,10,,,1,10,10,8,0,1,4,2,33,.33,HF,6868,1,18,reporter,uninformative,lie,0,1,1,0,1,0,0,0,0,1,0,,1,0
51,10,,,1,10,10,8,1,1,4,3,60,.6,HF,6868,1,19,reporter,informative,lie,0,1,1,0,1,0,0,0,1,0,0,1,0,
52,10,,,1,10,10,8,0,1,4,4,0,0,HF,6868,1,20,reporter,uninformative,lie,0,1,1,0,1,0,0,0,0,1,0,,1,0
53,10,,,1,10,10,8,1,1,4,5,66,.66,HF,6868,1,21,reporter,informative,lie,0,1,1,0,1,0,0,0,1,0,0,1,0,
54,10,,,1,10,10,8,1,1,4,6,60,.6,HF,6868,1,22,reporter,informative,lie,0,1,1,0,1,0,0,0,1,0,0,1,0,
55,10,,,1,10,10,8,1,1,4,7,60,.6,HF,6868,1,23,reporter,informative,lie,0,1,1,0,1,0,0,0,1,0,0,1,0,
56,10,,,1,10,10,8,1,1,4,8,50,.5,HF,6868,1,24,reporter,informative,lie,0,1,1,0,1,0,0,0,1,0,0,1,0,
57,10,,,1,10,10,8,1,1,4,9,55,.55,HF,6868,1,25,reporter,uninformative,lie,0,1,1,0,1,0,0,0,1,0,0,1,0,
58,10,,,1,10,10,8,1,1,4,10,78.16,.78,HF,6868,1,26,reporter,informative,lie,0,1,1,0,1,0,0,0,1,0,0,1,0,
59,10,,,1,10,10,8,1,1,4,11,54,.54,HF,6868,1,27,reporter,informative,lie,0,1,1,0,1,0,0,0,1,0,0,1,0,
60,10,,,1,10,10,8,1,0,4,12,40,.4,HF,6868,1,28,reporter,uninformative,lie,0,1,1,0,1,0,0,0,1,0,0,1,0,
61,10,,,1,10,10,8,1,1,4,13,64,.64,HF,6868,1,29,reporter,uninformative,lie,0,1,1,0,1,0,0,0,1,0,0,1,0,
62,10,,,1,10,10,8,1,1,4,14,50,.5,HF,6868,1,30,reporter,uninformative,lie,0,1,1,0,1,0,0,0,1,0,0,1,0,
63,10,,,1,10,10,8,1,1,4,15,75,.75,HF,6868,1,31,reporter,uninformative,lie,0,1,1,0,1,0,0,0,1,0,0,1,0,
64,10,,,1,10,10,8,1,1,4,16,80.04000000000001,.8,HF,6868,1,32,reporter,informative,lie,0,1,1,0,1,0,0,0,1,0,0,1,0,
1,11,,,1,11,11,6,1,1,1,1,60,.6,HF,6868,1,1,reporter,informative,truth,1,0,0,0,1,0,0,0,1,0,0,1,0,
2,11,,,1,11,11,6,1,1,1,2,85,.85,HF,6868,1,2,reporter,informative,truth,1,0,0,0,1,0,0,0,1,0,0,1,0,
3,11,,,1,11,11,6,1,1,1,3,65,.65,HF,6868,1,3,reporter,uninformative,truth,1,0,0,0,1,0,0,0,1,0,0,1,0,
4,11,,,1,11,11,6,1,1,1,4,60,.6,HF,6868,1,4,reporter,uninformative,truth,1,0,0,0,1,0,0,0,1,0,0,1,0,
5,11,,,1,11,11,6,1,1,1,5,60,.6,HF,6868,1,5,reporter,informative,truth,1,0,0,0,1,0,0,0,1,0,0,1,0,
6,11,,,1,11,11,6,1,1,1,6,75,.75,HF,6868,1,6,reporter,uninformative,truth,1,0,0,0,1,0,0,0,1,0,0,1,0,
7,11,,,1,11,11,6,0,0,1,7,55,.55,HF,6868,0,7,reporter,uninformative,truth,1,0,0,0,1,0,0,1,0,0,0,0,,
8,11,,,1,11,11,6,0,1,1,8,20,.2,HF,6868,1,8,reporter,uninformative,truth,1,0,0,0,1,0,0,0,0,1,0,,1,0
9,11,,,1,11,11,6,0,1,1,9,20.14,.2,HF,6868,1,9,reporter,uninformative,lie,0,0,0,0,1,0,0,0,0,1,0,,1,0
10,11,,,1,11,11,6,1,1,1,10,60,.6,HF,6868,1,10,reporter,informative,truth,1,0,0,0,1,0,0,0,1,0,0,1,0,
11,11,,,1,11,11,6,0,0,1,11,40,.4,HF,6868,0,11,reporter,uninformative,truth,1,0,0,0,1,0,0,1,0,0,0,0,,
12,11,,,1,11,11,6,1,0,1,12,35,.35,HF,6868,0,12,reporter,uninformative,truth,1,0,0,0,1,0,0,0,0,0,1,,,1
13,11,,,1,11,11,6,1,0,1,13,40,.4,HF,6868,0,13,reporter,uninformative,truth,1,0,0,0,1,0,0,0,0,0,1,,,1
14,11,,,1,11,11,6,1,1,1,14,60.03,.6,HF,6868,1,14,reporter,informative,truth,1,0,0,0,1,0,0,0,1,0,0,1,0,
15,11,,,1,11,11,6,0,0,1,15,50,.5,HF,6868,0,15,reporter,informative,truth,1,0,0,0,1,0,0,1,0,0,0,0,,
16,11,,,1,11,11,6,0,0,1,16,55,.55,HF,6868,0,16,reporter,uninformative,truth,1,0,0,0,1,0,0,1,0,0,0,0,,
17,11,,,1,11,11,8,1,1,2,1,60,.6,HF,6868,1,1,reporter,informative,lie,0,1,0,0,1,0,0,0,1,0,0,1,0,
18,11,,,1,11,11,8,1,1,2,2,60,.6,HF,6868,1,2,reporter,informative,truth,1,1,0,0,1,0,0,0,1,0,0,1,0,
19,11,,,1,11,11,8,1,0,2,3,50,.5,HF,6868,1,3,reporter,uninformative,lie,0,1,0,0,1,0,0,0,1,0,0,1,0,
20,11,,,1,11,11,8,1,0,2,4,50,.5,HF,6868,1,4,reporter,uninformative,lie,0,1,0,0,1,0,0,0,1,0,0,1,0,
21,11,,,1,11,11,8,1,1,2,5,50,.5,HF,6868,1,5,reporter,informative,truth,1,1,0,0,1,0,0,0,1,0,0,1,0,
22,11,,,1,11,11,8,1,1,2,6,50,.5,HF,6868,1,6,reporter,informative,truth,1,1,0,0,1,0,0,0,1,0,0,1,0,
23,11,,,1,11,11,8,1,1,2,7,55,.55,HF,6868,1,7,reporter,informative,truth,1,1,0,0,1,0,0,0,1,0,0,1,0,
24,11,,,1,11,11,8,1,1,2,8,45,.45,HF,6868,1,8,reporter,uninformative,truth,1,1,0,0,1,0,0,0,1,0,0,1,0,
25,11,,,1,11,11,8,1,1,2,9,79.99,.8,HF,6868,1,9,reporter,informative,truth,1,1,0,0,1,0,0,0,1,0,0,1,0,
26,11,,,1,11,11,8,1,0,2,10,,0,HF,6868,,10,reporter,uninformative,,,1,0,0,1,0,0,0,0,0,0,,,
27,11,,,1,11,11,8,1,1,2,11,,0,HF,6868,,11,reporter,informative,,,1,0,0,1,0,0,0,0,0,0,,,
28,11,,,1,11,11,8,0,0,2,12,,0,HF,6868,,12,reporter,uninformative,,,1,0,0,1,0,0,0,0,0,0,,,
29,11,,,1,11,11,8,1,1,2,13,,0,HF,6868,,13,reporter,informative,,,1,0,0,1,0,0,0,0,0,0,,,
30,11,,,1,11,11,8,1,1,2,14,,0,HF,6868,,14,reporter,informative,,,1,0,0,1,0,0,0,0,0,0,,,
31,11,,,1,11,11,8,0,0,2,15,,0,HF,6868,,15,reporter,informative,,,1,0,0,1,0,0,0,0,0,0,,,
32,11,,,1,11,11,8,1,1,2,16,,0,HF,6868,,16,reporter,informative,,,1,0,0,1,0,0,0,0,0,0,,,
33,11,,,1,11,11,6,1,1,3,1,,0,HF,6868,,17,reporter,informative,,,0,1,0,1,0,0,0,0,0,0,,,
34,11,,,1,11,11,6,0,0,3,2,,0,HF,6868,,18,reporter,uninformative,,,0,1,0,1,0,0,0,0,0,0,,,
35,11,,,1,11,11,6,0,0,3,3,,0,HF,6868,,19,reporter,informative,,,0,1,0,1,0,0,0,0,0,0,,,
36,11,,,1,11,11,6,0,0,3,4,,0,HF,6868,,20,reporter,uninformative,,,0,1,0,1,0,0,0,0,0,0,,,
37,11,,,1,11,11,6,0,1,3,5,,0,HF,6868,,21,reporter,uninformative,,,0,1,0,1,0,0,0,0,0,0,,,
38,11,,,1,11,11,6,1,1,3,6,,0,HF,6868,,22,reporter,uninformative,,,0,1,0,1,0,0,0,0,0,0,,,
39,11,,,1,11,11,6,1,1,3,7,,0,HF,6868,,23,reporter,informative,,,0,1,0,1,0,0,0,0,0,0,,,
40,11,,,1,11,11,6,1,1,3,8,,0,HF,6868,,24,reporter,informative,,,0,1,0,1,0,0,0,0,0,0,,,
41,11,,,1,11,11,6,1,0,3,9,,0,HF,6868,,25,reporter,uninformative,,,0,1,0,1,0,0,0,0,0,0,,,
42,11,,,1,11,11,6,0,1,3,10,,0,HF,6868,,26,reporter,uninformative,,,0,1,0,1,0,0,0,0,0,0,,,
43,11,,,1,11,11,6,0,0,3,11,,0,HF,6868,,27,reporter,informative,,,0,1,0,1,0,0,0,0,0,0,,,
44,11,,,1,11,11,6,1,1,3,12,,0,HF,6868,,28,reporter,uninformative,,,0,1,0,1,0,0,0,0,0,0,,,
45,11,,,1,11,11,6,0,0,3,13,,0,HF,6868,,29,reporter,informative,,,0,1,0,1,0,0,0,0,0,0,,,
46,11,,,1,11,11,6,1,1,3,14,,0,HF,6868,,30,reporter,uninformative,,,0,1,0,1,0,0,0,0,0,0,,,
47,11,,,1,11,11,6,0,0,3,15,,0,HF,6868,,31,reporter,uninformative,,,0,1,0,1,0,0,0,0,0,0,,,
48,11,,,1,11,11,6,1,0,3,16,,0,HF,6868,,32,reporter,uninformative,,,0,1,0,1,0,0,0,0,0,0,,,
49,11,,,1,11,11,8,1,1,4,1,,0,HF,6868,,17,reporter,informative,,,1,1,0,1,0,0,0,0,0,0,,,
50,11,,,1,11,11,8,1,1,4,2,,0,HF,6868,,18,reporter,uninformative,,,1,1,0,1,0,0,0,0,0,0,,,
51,11,,,1,11,11,8,0,1,4,3,,0,HF,6868,,19,reporter,uninformative,,,1,1,0,1,0,0,0,0,0,0,,,
52,11,,,1,11,11,8,1,1,4,4,,0,HF,6868,,20,reporter,informative,,,1,1,0,1,0,0,0,0,0,0,,,
53,11,,,1,11,11,8,1,0,4,5,,0,HF,6868,,21,reporter,uninformative,,,1,1,0,1,0,0,0,0,0,0,,,
54,11,,,1,11,11,8,1,1,4,6,,0,HF,6868,,22,reporter,informative,,,1,1,0,1,0,0,0,0,0,0,,,
55,11,,,1,11,11,8,0,0,4,7,,0,HF,6868,,23,reporter,uninformative,,,1,1,0,1,0,0,0,0,0,0,,,
56,11,,,1,11,11,8,1,1,4,8,,0,HF,6868,,24,reporter,uninformative,,,1,1,0,1,0,0,0,0,0,0,,,
57,11,,,1,11,11,8,1,1,4,9,,0,HF,6868,,25,reporter,informative,,,1,1,0,1,0,0,0,0,0,0,,,
58,11,,,1,11,11,8,1,1,4,10,,0,HF,6868,,26,reporter,informative,,,1,1,0,1,0,0,0,0,0,0,,,
59,11,,,1,11,11,8,1,1,4,11,,0,HF,6868,,27,reporter,uninformative,,,1,1,0,1,0,0,0,0,0,0,,,
60,11,,,1,11,11,8,1,0,4,12,,0,HF,6868,,28,reporter,uninformative,,,1,1,0,1,0,0,0,0,0,0,,,
61,11,,,1,11,11,8,1,1,4,13,,0,HF,6868,,29,reporter,uninformative,,,1,1,0,1,0,0,0,0,0,0,,,
62,11,,,1,11,11,8,0,1,4,14,,0,HF,6868,,30,reporter,uninformative,,,1,1,0,1,0,0,0,0,0,0,,,
63,11,,,1,11,11,8,1,0,4,15,,0,HF,6868,,31,reporter,uninformative,,,1,1,0,1,0,0,0,0,0,0,,,
64,11,,,1,11,11,8,1,0,4,16,,0,HF,6868,,32,reporter,uninformative,,,1,1,0,1,0,0,0,0,0,0,,,
1,12,57.536415,57.536419,1,12,11,6,1,0,1,1,60,.75,HF,6868,1,1,evaluator,informative,,,0,0,0,1,0,0,0,1,0,0,1,0,
2,12,28.960335,35.860123,1,12,9,6,0,1,1,2,55,0,HF,6868,1,2,evaluator,uninformative,,,0,0,0,1,0,0,0,0,1,0,,1,0
3,12,57.378159,56.618111,1,12,3,6,1,0,1,3,60,.75,HF,6868,1,3,evaluator,informative,,,0,0,0,1,0,0,0,1,0,0,1,0,
4,12,59.025253,56.618111,1,12,2,6,1,1,1,4,70,.75,HF,6868,1,4,evaluator,informative,,,0,0,0,1,0,0,0,1,0,0,1,0,
5,12,60.168358,56.618111,1,12,9,6,1,1,1,5,40,.75,HF,6868,1,5,evaluator,uninformative,,,0,0,0,1,0,0,0,1,0,0,1,0,
6,12,61.010143,55.776711,1,12,1,6,1,1,1,6,52,.75,HF,6868,1,6,evaluator,informative,,,0,0,0,1,0,0,0,1,0,0,1,0,
7,12,26.293184,40.163834,1,12,8,6,0,1,1,7,40,.75,HF,6868,1,7,evaluator,uninformative,,,0,0,0,1,0,0,0,0,1,0,,1,0
8,12,,,1,12,6,6,1,0,1,8,40,.75,HF,6868,0,8,evaluator,uninformative,,,0,0,0,1,0,0,0,0,0,1,,,1
9,12,35.057579,35.304123,1,12,3,6,0,0,1,9,60,.75,HF,6868,1,9,evaluator,uninformative,,,0,0,0,1,0,0,0,0,1,0,,1,0
10,12,57.99501,57.366943,1,12,9,6,1,0,1,10,65,.75,HF,6868,1,10,evaluator,uninformative,,,0,0,0,1,0,0,0,1,0,0,1,0,
11,12,58.630077,56.701965,1,12,10,6,1,1,1,11,67,.75,HF,6868,1,11,evaluator,informative,,,0,0,0,1,0,0,0,1,0,0,1,0,
12,12,34.652546,38.805943,1,12,4,6,0,0,1,12,55,.75,HF,6868,1,12,evaluator,uninformative,,,0,0,0,1,0,0,0,0,1,0,,1,0
13,12,58.414227,56.094624,1,12,6,6,1,1,1,13,58,.75,HF,6868,1,13,evaluator,informative,,,0,0,0,1,0,0,0,1,0,0,1,0,
14,12,58.899593,56.094624,1,12,7,6,1,0,1,14,54,.75,HF,6868,1,14,evaluator,uninformative,,,0,0,0,1,0,0,0,1,0,0,1,0,
15,12,59.330627,55.550175,1,12,6,6,1,1,1,15,58,.75,HF,6868,1,15,evaluator,informative,,,0,0,0,1,0,0,0,1,0,0,1,0,
16,12,,,1,12,11,6,0,1,1,16,55,.75,HF,6868,0,16,evaluator,uninformative,,,0,0,0,1,0,0,1,0,0,0,0,,
17,12,57.536415,57.536419,1,12,7,8,1,0,2,1,60,.75,HF,6868,1,1,evaluator,informative,,,1,0,0,1,0,0,0,1,0,0,1,0,
18,12,60.291317,57.536419,1,12,5,8,1,1,2,2,57,0,HF,6868,1,2,evaluator,uninformative,,,1,0,0,1,0,0,0,1,0,0,1,0,
19,12,,,1,12,7,8,0,1,2,3,65,0,HF,6868,0,3,evaluator,informative,,,1,0,0,1,0,0,1,0,0,0,0,,
20,12,62.655441,59.56303,1,12,6,8,1,1,2,4,55,.75,HF,6868,1,4,evaluator,uninformative,,,1,0,0,1,0,0,0,1,0,0,1,0,
21,12,63.277214,58.817417,1,12,7,8,1,1,2,5,72,.75,HF,6868,1,5,evaluator,informative,,,1,0,0,1,0,0,0,1,0,0,1,0,
22,12,17.302921,33.283314,1,12,5,8,0,1,2,6,63,.75,HF,6868,1,6,evaluator,uninformative,,,1,0,0,1,0,0,0,0,1,0,,1,0
23,12,61.656796,58.078003,1,12,8,8,1,1,2,7,56,.75,HF,6868,1,7,evaluator,uninformative,,,1,0,0,1,0,0,0,1,0,0,1,0,
24,12,62.169579,57.366943,1,12,4,8,1,0,2,8,62,.75,HF,6868,1,8,evaluator,informative,,,1,0,0,1,0,0,0,1,0,0,1,0,
25,12,,,1,12,2,8,0,1,2,9,65,.75,HF,6868,0,9,evaluator,informative,,,1,0,0,1,0,0,1,0,0,0,0,,
26,12,62.93206,59.382034,1,12,1,8,1,0,2,10,61,.75,HF,6868,1,10,evaluator,informative,,,1,0,0,1,0,0,0,1,0,0,1,0,
27,12,63.223412,59.382034,1,12,8,8,1,1,2,11,46,.75,HF,6868,1,11,evaluator,uninformative,,,1,0,0,1,0,0,0,1,0,0,1,0,
28,12,19.4079,33.953445,1,12,6,8,0,0,2,12,52,.75,HF,6868,1,12,evaluator,uninformative,,,1,0,0,1,0,0,0,0,1,0,,1,0
29,12,62.288548,58.147396,1,12,6,8,1,1,2,13,62,.75,HF,6868,1,13,evaluator,informative,,,1,0,0,1,0,0,0,1,0,0,1,0,
30,12,62.559879,58.147396,1,12,2,8,1,0,2,14,56,.75,HF,6868,1,14,evaluator,informative,,,1,0,0,1,0,0,0,1,0,0,1,0,
31,12,62.799393,58.147396,1,12,4,8,1,0,2,15,51,.75,HF,6868,1,15,evaluator,informative,,,1,0,0,1,0,0,0,1,0,0,1,0,
32,12,63.012398,58.147396,1,12,4,8,1,0,2,16,51,.75,HF,6868,1,16,evaluator,informative,,,1,0,0,1,0,0,0,1,0,0,1,0,
33,12,60.06271,57.565861,1,12,6,6,1,1,3,1,57,.75,HF,6868,1,17,evaluator,informative,,,0,1,0,1,0,0,0,1,0,0,1,0,
34,12,,,1,12,4,6,1,0,3,2,38,0,HF,6868,0,18,evaluator,uninformative,,,0,1,0,1,0,0,0,0,0,1,,,1
35,12,59.758808,59.149254,1,12,8,6,1,0,3,3,57,0,HF,6868,1,19,evaluator,uninformative,,,0,1,0,1,0,0,0,1,0,0,1,0,
36,12,60.054211,58.613342,1,12,4,6,1,1,3,4,60,.75,HF,6868,1,20,evaluator,informative,,,0,1,0,1,0,0,0,1,0,0,1,0,
37,12,60.32526,58.613342,1,12,8,6,1,1,3,5,54,.75,HF,6868,1,21,evaluator,informative,,,0,1,0,1,0,0,0,1,0,0,1,0,
38,12,31.054012,34.712418,1,12,5,6,0,1,3,6,60,.75,HF,6868,1,22,evaluator,uninformative,,,0,1,0,1,0,0,0,0,1,0,,1,0
39,12,60.047741,58.097626,1,12,9,6,1,1,3,7,56,.75,HF,6868,1,23,evaluator,informative,,,0,1,0,1,0,0,0,1,0,0,1,0,
40,12,,,1,12,11,6,1,1,3,8,,0,HF,6868,,24,evaluator,informative,,,0,1,0,1,0,0,0,0,0,0,,,
41,12,31.976927,36.116936,1,12,8,6,0,1,3,9,60,.75,HF,6868,1,25,evaluator,uninformative,,,0,1,0,1,0,0,0,0,1,0,,1,0
42,12,,,1,12,11,6,0,1,3,10,,.75,HF,6868,,26,evaluator,uninformative,,,0,1,0,1,0,0,0,0,0,0,,,
43,12,,,1,12,6,6,0,1,3,11,64,.75,HF,6868,0,27,evaluator,informative,,,0,1,0,1,0,0,1,0,0,0,0,,
44,12,60.042648,58.920967,1,12,9,6,1,1,3,12,58,.75,HF,6868,1,28,evaluator,informative,,,0,1,0,1,0,0,0,1,0,0,1,0,
45,12,,,1,12,7,6,0,1,3,13,60,.75,HF,6868,0,29,evaluator,informative,,,0,1,0,1,0,0,1,0,0,0,0,,
46,12,60.455784,60.017483,1,12,6,6,1,1,3,14,48,.75,HF,6868,1,30,evaluator,uninformative,,,0,1,0,1,0,0,0,1,0,0,1,0,
47,12,,,1,12,2,6,1,0,3,15,20,.75,HF,6868,0,31,evaluator,uninformative,,,0,1,0,1,0,0,0,0,0,1,,,1
48,12,60.231236,60.514736,1,12,10,6,1,0,3,16,62,.75,HF,6868,1,32,evaluator,informative,,,0,1,0,1,0,0,0,1,0,0,1,0,
49,12,63.203079,58.147396,1,12,8,8,1,1,4,1,60,.75,HF,6868,1,17,evaluator,informative,,,1,1,0,1,0,0,0,1,0,0,1,0,
50,12,63.374783,58.147396,1,12,5,8,1,1,4,2,55,0,HF,6868,1,18,evaluator,informative,,,1,1,0,1,0,0,0,1,0,0,1,0,
51,12,63.530212,58.147396,1,12,8,8,1,1,4,3,56,.75,HF,6868,1,19,evaluator,informative,,,1,1,0,1,0,0,0,1,0,0,1,0,
52,12,,,1,12,6,8,0,0,4,4,60,.75,HF,6868,0,20,evaluator,uninformative,,,1,1,0,1,0,0,1,0,0,0,0,,
53,12,63.800732,59.696327,1,12,2,8,1,0,4,5,55,.75,HF,6868,1,21,evaluator,informative,,,1,1,0,1,0,0,0,1,0,0,1,0,
54,12,63.91917,59.696327,1,12,7,8,1,1,4,6,52,.75,HF,6868,1,22,evaluator,informative,,,1,1,0,1,0,0,0,1,0,0,1,0,
55,12,64.028191,59.696327,1,12,1,8,1,1,4,7,53,.75,HF,6868,1,23,evaluator,informative,,,1,1,0,1,0,0,0,1,0,0,1,0,
56,12,64.128868,59.696327,1,12,1,8,1,1,4,8,51,0,HF,6868,1,24,evaluator,informative,,,1,1,0,1,0,0,0,1,0,0,1,0,
57,12,,,1,12,11,8,1,0,4,9,,0,HF,6868,,25,evaluator,informative,,,1,1,0,1,0,0,0,0,0,0,,,
58,12,,,1,12,11,8,1,1,4,10,,0,HF,6868,,26,evaluator,informative,,,1,1,0,1,0,0,0,0,0,0,,,
59,12,64.22213,59.696327,1,12,10,8,1,1,4,11,54,.75,HF,6868,1,27,evaluator,informative,,,1,1,0,1,0,0,0,1,0,0,1,0,
60,12,64.308769,59.696327,1,12,10,8,1,1,4,12,40,.75,HF,6868,1,28,evaluator,uninformative,,,1,1,0,1,0,0,0,1,0,0,1,0,
61,12,64.389465,59.149254,1,12,8,8,1,1,4,13,57,.75,HF,6868,1,29,evaluator,informative,,,1,1,0,1,0,0,0,1,0,0,1,0,
62,12,64.464813,59.149254,1,12,9,8,1,0,4,14,53,.75,HF,6868,1,30,evaluator,uninformative,,,1,1,0,1,0,0,0,1,0,0,1,0,
63,12,14.644061,34.712418,1,12,9,8,0,1,4,15,50,.75,HF,6868,1,31,evaluator,uninformative,,,1,1,0,1,0,0,0,0,1,0,,1,0
64,12,63.940151,58.097626,1,12,8,8,1,0,4,16,57,.75,HF,6868,1,32,evaluator,uninformative,,,1,1,0,1,0,0,0,1,0,0,1,0,
1,13,57.536415,57.536419,1,13,6,6,1,1,1,1,80,.75,HF,6868,1,1,evaluator,informative,,,0,0,0,1,0,0,0,1,0,0,1,0,
2,13,,,1,13,6,6,0,0,1,2,40,.75,HF,6868,0,2,evaluator,informative,,,0,0,0,1,0,0,1,0,0,0,0,,
3,13,,,1,13,6,6,0,1,1,3,35,0,HF,6868,0,3,evaluator,informative,,,0,0,0,1,0,0,1,0,0,0,0,,
4,13,21.488596,24.587336,1,13,8,6,0,1,1,4,50,.75,HF,6868,1,4,evaluator,informative,,,0,0,0,1,0,0,0,0,1,0,,1,0
5,13,30.852341,33.883553,1,13,8,6,0,0,1,5,60,0,HF,6868,1,5,evaluator,uninformative,,,0,0,0,1,0,0,0,0,1,0,,1,0
6,13,58.484787,58.535351,1,13,11,6,1,0,1,6,75,.75,HF,6868,1,6,evaluator,uninformative,,,0,0,0,1,0,0,0,1,0,0,1,0,
7,13,59.393505,58.050507,1,13,5,6,1,1,1,7,65,.75,HF,6868,1,7,evaluator,informative,,,0,0,0,1,0,0,0,1,0,0,1,0,
8,13,60.118446,58.050507,1,13,8,6,1,0,1,8,55,.75,HF,6868,1,8,evaluator,informative,,,0,0,0,1,0,0,0,1,0,0,1,0,
9,13,29.884844,36.418568,1,13,2,6,0,0,1,9,30,.75,HF,6868,1,9,evaluator,uninformative,,,0,0,0,1,0,0,0,0,1,0,,1,0
10,13,59.55999,57.577736,1,13,5,6,1,1,1,10,60,0,HF,6868,1,10,evaluator,uninformative,,,0,0,0,1,0,0,0,1,0,0,1,0,
11,13,32.014118,38.648476,1,13,8,6,0,1,1,11,40,.75,HF,6868,1,11,evaluator,uninformative,,,0,0,0,1,0,0,0,0,1,0,,1,0
12,13,,,1,13,11,6,1,1,1,12,35,.75,HF,6868,0,12,evaluator,uninformative,,,0,0,0,1,0,0,0,0,0,1,,,1
13,13,58.414227,58.046032,1,13,8,6,1,1,1,13,50,.75,HF,6868,1,13,evaluator,informative,,,0,0,0,1,0,0,0,1,0,0,1,0,
14,13,,,1,13,1,6,1,0,1,14,33,.75,HF,6868,0,14,evaluator,uninformative,,,0,0,0,1,0,0,0,0,0,1,,,1
15,13,58.25304,59.12859,1,13,10,6,1,1,1,15,58,0,HF,6868,1,15,evaluator,uninformative,,,0,0,0,1,0,0,0,1,0,0,1,0,
16,13,58.688301,58.745884,1,13,9,6,1,0,1,16,50,0,HF,6868,1,16,evaluator,informative,,,0,0,0,1,0,0,0,1,0,0,1,0,
17,13,,,1,13,4,8,0,0,2,1,45,.75,HF,6868,0,1,evaluator,informative,,,1,0,0,1,0,0,1,0,0,0,0,,
18,13,28.960335,28.960335,1,13,3,8,0,1,2,2,40,.75,HF,6868,1,2,evaluator,uninformative,,,1,0,0,1,0,0,0,0,1,0,,1,0
19,13,37.706333,31.146833,1,13,3,8,0,1,2,3,43,.75,HF,6868,1,3,evaluator,uninformative,,,1,0,0,1,0,0,0,0,1,0,,1,0
20,13,41.52911,33.283314,1,13,7,8,0,1,2,4,40,.75,HF,6868,1,4,evaluator,uninformative,,,1,0,0,1,0,0,0,0,1,0,,1,0
21,13,54.678036,58.078003,1,13,5,8,1,1,2,5,60,.75,HF,6868,1,5,evaluator,informative,,,1,0,0,1,0,0,0,1,0,0,1,0,
22,13,56.13641,58.078003,1,13,4,8,1,0,2,6,60,.75,HF,6868,1,6,evaluator,informative,,,1,0,0,1,0,0,0,1,0,0,1,0,
23,13,57.273159,58.078003,1,13,9,8,1,1,2,7,60,.75,HF,6868,1,7,evaluator,uninformative,,,1,0,0,1,0,0,0,1,0,0,1,0,
24,13,58.185276,57.366943,1,13,5,8,1,1,2,8,60,.75,HF,6868,1,8,evaluator,uninformative,,,1,0,0,1,0,0,0,1,0,0,1,0,
25,13,58.933998,56.701965,1,13,3,8,1,1,2,9,60,.75,HF,6868,1,9,evaluator,informative,,,1,0,0,1,0,0,0,1,0,0,1,0,
26,13,33.461285,38.805943,1,13,3,8,0,1,2,10,30,.75,HF,6868,1,10,evaluator,uninformative,,,1,0,0,1,0,0,0,0,1,0,,1,0
27,13,58.630077,56.094624,1,13,4,8,1,0,2,11,60,0,HF,6868,1,11,evaluator,uninformative,,,1,0,0,1,0,0,0,1,0,0,1,0,
28,13,59.177662,55.550175,1,13,5,8,1,1,2,12,58,.75,HF,6868,1,12,evaluator,uninformative,,,1,0,0,1,0,0,0,1,0,0,1,0,
29,13,33.413853,42.493122,1,13,5,8,0,0,2,13,36,.75,HF,6868,1,13,evaluator,informative,,,1,0,0,1,0,0,0,0,1,0,,1,0
30,13,58.899593,53.991158,1,13,8,8,1,1,2,14,55,.75,HF,6868,1,14,evaluator,informative,,,1,0,0,1,0,0,0,1,0,0,1,0,
31,13,59.330627,53.991158,1,13,9,8,1,0,2,15,58,.75,HF,6868,1,15,evaluator,informative,,,1,0,0,1,0,0,0,1,0,0,1,0,
32,13,59.716026,53.991158,1,13,6,8,1,1,2,16,56,.75,HF,6868,1,16,evaluator,informative,,,1,0,0,1,0,0,0,1,0,0,1,0,
33,13,35.133003,35.054417,1,13,3,6,0,1,3,1,50,.75,HF,6868,1,17,evaluator,informative,,,0,1,0,1,0,0,0,0,1,0,,1,0
34,13,58.522327,57.46109,1,13,8,6,1,0,3,2,40,.75,HF,6868,1,18,evaluator,uninformative,,,0,1,0,1,0,0,0,1,0,0,1,0,
35,13,35.697044,39.078728,1,13,9,6,0,0,3,3,50,0,HF,6868,1,19,evaluator,uninformative,,,0,1,0,1,0,0,0,0,1,0,,1,0
36,13,36.919128,39.702412,1,13,3,6,0,0,3,4,58,0,HF,6868,1,20,evaluator,uninformative,,,0,1,0,1,0,0,0,0,1,0,,1,0
37,13,57.947048,56.60516,1,13,4,6,1,1,3,5,60,.75,HF,6868,1,21,evaluator,uninformative,,,0,1,0,1,0,0,0,1,0,0,1,0,
38,13,37.215481,40.820702,1,13,8,6,0,1,3,6,40,.75,HF,6868,1,22,evaluator,uninformative,,,0,1,0,1,0,0,0,0,1,0,,1,0
39,13,,,1,13,4,6,0,1,3,7,50,.75,HF,6868,0,23,evaluator,informative,,,0,1,0,1,0,0,1,0,0,0,0,,
40,13,58.186081,56.95895,1,13,2,6,1,0,3,8,63,0,HF,6868,1,24,evaluator,uninformative,,,0,1,0,1,0,0,0,1,0,0,1,0,
41,13,58.471996,56.714512,1,13,5,6,1,0,3,9,50,.75,HF,6868,1,25,evaluator,informative,,,0,1,0,1,0,0,0,1,0,0,1,0,
42,13,36.182098,40.150848,1,13,6,6,0,1,3,10,30,0,HF,6868,1,26,evaluator,uninformative,,,0,1,0,1,0,0,0,0,1,0,,1,0
43,13,,,1,13,3,6,0,1,3,11,50,0,HF,6868,0,27,evaluator,informative,,,0,1,0,1,0,0,1,0,0,0,0,,
44,13,,,1,13,6,6,0,0,3,12,66,.75,HF,6868,0,28,evaluator,uninformative,,,0,1,0,1,0,0,1,0,0,0,0,,
45,13,,,1,13,6,6,0,1,3,13,65,0,HF,6868,0,29,evaluator,informative,,,0,1,0,1,0,0,1,0,0,0,0,,
46,13,35.370567,36.133377,1,13,2,6,0,0,3,14,15,.75,HF,6868,1,30,evaluator,uninformative,,,0,1,0,1,0,0,0,0,1,0,,1,0
47,13,58.752533,58.325989,1,13,8,6,1,0,3,15,60,0,HF,6868,1,31,evaluator,uninformative,,,0,1,0,1,0,0,0,1,0,0,1,0,
48,13,58.964428,58.101856,1,13,3,6,1,1,3,16,50,.75,HF,6868,1,32,evaluator,informative,,,0,1,0,1,0,0,0,1,0,0,1,0,
49,13,,,1,13,11,8,1,0,4,1,,0,HF,6868,,17,evaluator,informative,,,1,1,0,1,0,0,0,0,0,0,,,
50,13,60.06271,53.991158,1,13,2,8,1,1,4,2,70,.75,HF,6868,1,18,evaluator,informative,,,1,1,0,1,0,0,0,1,0,0,1,0,
51,13,60.376266,53.991158,1,13,4,8,1,1,4,3,65,.75,HF,6868,1,19,evaluator,uninformative,,,1,1,0,1,0,0,0,1,0,0,1,0,
52,13,30.694958,45.135571,1,13,2,8,0,1,4,4,25,.75,HF,6868,1,20,evaluator,uninformative,,,1,1,0,1,0,0,0,0,1,0,,1,0
53,13,60.054211,53.493298,1,13,7,8,1,0,4,5,65,0,HF,6868,1,21,evaluator,uninformative,,,1,1,0,1,0,0,0,1,0,0,1,0,
54,13,60.32526,53.282581,1,13,10,8,1,1,4,6,60,.75,HF,6868,1,22,evaluator,informative,,,1,1,0,1,0,0,0,1,0,0,1,0,
55,13,,,1,13,11,8,0,0,4,7,,.75,HF,6868,,23,evaluator,uninformative,,,1,1,0,1,0,0,0,0,0,0,,,
56,13,60.574867,53.282581,1,13,2,8,1,0,4,8,65,.75,HF,6868,1,24,evaluator,uninformative,,,1,1,0,1,0,0,0,1,0,0,1,0,
57,13,,,1,13,3,8,1,1,4,9,20,.75,HF,6868,0,25,evaluator,uninformative,,,1,1,0,1,0,0,0,0,0,1,,,1
58,13,60.286434,54.422085,1,13,9,8,1,0,4,10,65,.75,HF,6868,1,26,evaluator,uninformative,,,1,1,0,1,0,0,0,1,0,0,1,0,
59,13,60.508446,54.196156,1,13,5,8,1,1,4,11,66,.75,HF,6868,1,27,evaluator,informative,,,1,1,0,1,0,0,0,1,0,0,1,0,
60,13,60.715469,54.196156,1,13,9,8,1,1,4,12,68,.75,HF,6868,1,28,evaluator,informative,,,1,1,0,1,0,0,0,1,0,0,1,0,
61,13,60.908974,54.196156,1,13,4,8,1,0,4,13,65,.75,HF,6868,1,29,evaluator,informative,,,1,1,0,1,0,0,0,1,0,0,1,0,
62,13,29.532436,44.523914,1,13,8,8,0,1,4,14,15,.75,HF,6868,1,30,evaluator,informative,,,1,1,0,1,0,0,0,0,1,0,,1,0
63,13,30.98164,45.366508,1,13,5,8,0,0,4,15,50,.75,HF,6868,1,31,evaluator,informative,,,1,1,0,1,0,0,0,0,1,0,,1,0
64,13,60.231236,53.315639,1,13,1,8,1,0,4,16,30,.75,HF,6868,1,32,evaluator,uninformative,,,1,1,0,1,0,0,0,1,0,0,1,0,
1,14,57.536415,57.536419,1,14,1,6,1,0,1,1,70,.75,HF,6868,1,1,evaluator,uninformative,,,0,0,0,1,0,0,0,1,0,0,1,0,
2,14,60.291317,56.618111,1,14,8,6,1,0,1,2,65,.75,HF,6868,1,2,evaluator,informative,,,0,0,0,1,0,0,0,1,0,0,1,0,
3,14,61.747894,56.618111,1,14,5,6,1,0,1,3,68,.75,HF,6868,1,3,evaluator,informative,,,0,0,0,1,0,0,0,1,0,0,1,0,
4,14,62.655441,56.618111,1,14,6,6,1,0,1,4,67,0,HF,6868,1,4,evaluator,uninformative,,,0,0,0,1,0,0,0,1,0,0,1,0,
5,14,,,1,14,6,6,0,1,1,5,75,.75,HF,6868,0,5,evaluator,informative,,,0,0,0,1,0,0,1,0,0,0,0,,
6,14,17.302921,33.283314,1,14,10,6,0,1,1,6,15,0,HF,6868,1,6,evaluator,informative,,,0,0,0,1,0,0,0,0,1,0,,1,0
7,14,61.656796,56.309837,1,14,3,6,1,1,1,7,63,.75,HF,6868,1,7,evaluator,uninformative,,,0,0,0,1,0,0,0,1,0,0,1,0,
8,14,62.169579,55.826317,1,14,7,6,1,1,1,8,64,.75,HF,6868,1,8,evaluator,informative,,,0,0,0,1,0,0,0,1,0,0,1,0,
9,14,22.98875,41.169243,1,14,5,6,0,1,1,9,35,0,HF,6868,1,9,evaluator,informative,,,0,0,0,1,0,0,0,0,1,0,,1,0
10,14,61.203815,54.635357,1,14,2,6,1,0,1,10,62,0,HF,6868,1,10,evaluator,uninformative,,,0,0,0,1,0,0,0,1,0,0,1,0,
11,14,26.978821,44.156445,1,14,5,6,0,0,1,11,22,.75,HF,6868,1,11,evaluator,informative,,,0,0,0,1,0,0,0,0,1,0,,1,0
12,14,60.548225,53.646015,1,14,8,6,1,1,1,12,100,.75,HF,6868,1,12,evaluator,informative,,,0,0,0,1,0,0,0,1,0,0,1,0,
13,14,60.945297,53.646015,1,14,10,6,1,1,1,13,10,.75,HF,6868,1,13,evaluator,uninformative,,,0,0,0,1,0,0,0,1,0,0,1,0,
14,14,,,1,14,4,6,0,1,1,14,99,.75,HF,6868,0,14,evaluator,informative,,,0,0,0,1,0,0,1,0,0,0,0,,
15,14,,,1,14,3,6,1,1,1,15,0,.75,HF,6868,0,15,evaluator,uninformative,,,0,0,0,1,0,0,0,0,0,1,,,1
16,14,60.778164,55.861263,1,14,8,6,1,0,1,16,98,0,HF,6868,1,16,evaluator,uninformative,,,0,0,0,1,0,0,0,1,0,0,1,0,
17,14,57.536415,57.536419,1,14,5,8,1,1,2,1,74,0,HF,6868,1,1,evaluator,uninformative,,,1,0,0,1,0,0,0,1,0,0,1,0,
18,14,,,1,14,7,8,0,1,2,2,90,.75,HF,6868,0,2,evaluator,informative,,,1,0,0,1,0,0,1,0,0,0,0,,
19,14,61.747894,59.56303,1,14,8,8,1,1,2,3,85,.75,HF,6868,1,3,evaluator,informative,,,1,0,0,1,0,0,0,1,0,0,1,0,
20,14,62.655441,59.56303,1,14,3,8,1,0,2,4,0,0,HF,6868,1,4,evaluator,informative,,,1,0,0,1,0,0,0,1,0,0,1,0,
21,14,63.277214,59.56303,1,14,8,8,1,1,2,5,0,0,HF,6868,1,5,evaluator,informative,,,1,0,0,1,0,0,0,1,0,0,1,0,
22,14,63.730629,59.56303,1,14,7,8,1,1,2,6,0,.75,HF,6868,1,6,evaluator,uninformative,,,1,0,0,1,0,0,0,1,0,0,1,0,
23,14,64.076271,58.817417,1,14,3,8,1,1,2,7,65,.75,HF,6868,1,7,evaluator,uninformative,,,1,0,0,1,0,0,0,1,0,0,1,0,
24,14,64.348648,58.078003,1,14,11,8,1,1,2,8,45,0,HF,6868,1,8,evaluator,uninformative,,,1,0,0,1,0,0,0,1,0,0,1,0,
25,14,64.568932,57.366943,1,14,5,8,1,1,2,9,67,.75,HF,6868,1,9,evaluator,informative,,,1,0,0,1,0,0,0,1,0,0,1,0,
26,14,64.750809,57.366943,1,14,10,8,1,0,2,10,75,0,HF,6868,1,10,evaluator,uninformative,,,1,0,0,1,0,0,0,1,0,0,1,0,
27,14,64.903542,56.701965,1,14,1,8,1,1,2,11,68,.75,HF,6868,1,11,evaluator,uninformative,,,1,0,0,1,0,0,0,1,0,0,1,0,
28,14,65.033653,56.094624,1,14,9,8,1,1,2,12,65,.75,HF,6868,1,12,evaluator,uninformative,,,1,0,0,1,0,0,0,1,0,0,1,0,
29,14,65.145821,55.550175,1,14,7,8,1,0,2,13,65,0,HF,6868,1,13,evaluator,uninformative,,,1,0,0,1,0,0,0,1,0,0,1,0,
30,14,,,1,14,11,8,1,0,2,14,,0,HF,6868,,14,evaluator,informative,,,1,0,0,1,0,0,0,0,0,0,,,
31,14,,,1,14,6,8,0,1,2,15,100,.75,HF,6868,0,15,evaluator,informative,,,1,0,0,1,0,0,1,0,0,0,0,,
32,14,9.4772625,38.51619,1,14,8,8,0,0,2,16,56,.75,HF,6868,1,16,evaluator,informative,,,1,0,0,1,0,0,0,0,1,0,,1,0
33,14,61.076271,55.615265,1,14,2,6,1,1,3,1,65,0,HF,6868,1,17,evaluator,uninformative,,,0,1,0,1,0,0,0,1,0,0,1,0,
34,14,61.345505,55.382179,1,14,10,6,1,1,3,2,65,.75,HF,6868,1,18,evaluator,informative,,,0,1,0,1,0,0,0,1,0,0,1,0,
35,14,61.589882,55.382179,1,14,5,6,1,0,3,3,65,0,HF,6868,1,19,evaluator,uninformative,,,0,1,0,1,0,0,0,1,0,0,1,0,
36,14,61.81271,55.16188,1,14,9,6,1,0,3,4,64,.75,HF,6868,1,20,evaluator,uninformative,,,0,1,0,1,0,0,0,1,0,0,1,0,
37,14,,,1,14,6,6,0,0,3,5,90,.75,HF,6868,0,21,evaluator,informative,,,0,1,0,1,0,0,1,0,0,0,0,,
38,14,62.204224,55.86208,1,14,6,6,1,1,3,6,64,.75,HF,6868,1,22,evaluator,uninformative,,,0,1,0,1,0,0,0,1,0,0,1,0,
39,14,62.377136,55.651508,1,14,3,6,1,1,3,7,20,0,HF,6868,1,23,evaluator,informative,,,0,1,0,1,0,0,0,1,0,0,1,0,
40,14,62.537109,55.651508,1,14,8,6,1,0,3,8,64,.75,HF,6868,1,24,evaluator,uninformative,,,0,1,0,1,0,0,0,1,0,0,1,0,
41,14,62.685547,55.45121,1,14,4,6,1,0,3,9,64,.75,HF,6868,1,25,evaluator,informative,,,0,1,0,1,0,0,0,1,0,0,1,0,
42,14,22.973972,42.581985,1,14,4,6,0,1,3,10,64,0,HF,6868,1,26,evaluator,uninformative,,,0,1,0,1,0,0,0,0,1,0,,1,0
43,14,62.256832,55.260944,1,14,4,6,1,0,3,11,64,.75,HF,6868,1,27,evaluator,informative,,,0,1,0,1,0,0,0,1,0,0,1,0,
44,14,,,1,14,2,6,0,1,3,12,80,.75,HF,6868,0,28,evaluator,informative,,,0,1,0,1,0,0,1,0,0,0,0,,
45,14,24.258501,41.545002,1,14,9,6,0,0,3,13,0,.75,HF,6868,1,29,evaluator,uninformative,,,0,1,0,1,0,0,0,0,1,0,,1,0
46,14,62.032265,55.850117,1,14,8,6,1,1,3,14,64,.75,HF,6868,1,30,evaluator,uninformative,,,0,1,0,1,0,0,0,1,0,0,1,0,
47,14,62.16671,55.666763,1,14,9,6,1,1,3,15,64,.75,HF,6868,1,31,evaluator,informative,,,0,1,0,1,0,0,0,1,0,0,1,0,
48,14,25.26206,42.25238,1,14,8,6,0,1,3,16,0,0,HF,6868,1,32,evaluator,informative,,,0,1,0,1,0,0,0,0,1,0,,1,0
49,14,64.188118,55.55703,1,14,1,8,1,0,4,1,64,.75,HF,6868,1,17,evaluator,informative,,,1,1,0,1,0,0,0,1,0,0,1,0,
50,14,64.31945,55.55703,1,14,7,8,1,1,4,2,64,0,HF,6868,1,18,evaluator,informative,,,1,1,0,1,0,0,0,1,0,0,1,0,
51,14,64.437538,55.55703,1,14,5,8,1,1,4,3,0,.75,HF,6868,1,19,evaluator,uninformative,,,1,1,0,1,0,0,0,1,0,0,1,0,
52,14,14.323339,42.645218,1,14,10,8,0,0,4,4,0,.75,HF,6868,1,20,evaluator,uninformative,,,1,1,0,1,0,0,0,0,1,0,,1,0
53,14,63.671585,54.939556,1,14,9,8,1,1,4,5,64,.75,HF,6868,1,21,evaluator,informative,,,1,1,0,1,0,0,0,1,0,0,1,0,
54,14,63.800732,54.939556,1,14,9,8,1,0,4,6,64,0,HF,6868,1,22,evaluator,informative,,,1,1,0,1,0,0,0,1,0,0,1,0,
55,14,63.91917,54.939556,1,14,7,8,1,1,4,7,64,.75,HF,6868,1,23,evaluator,informative,,,1,1,0,1,0,0,0,1,0,0,1,0,
56,14,,,1,14,11,8,1,1,4,8,,.75,HF,6868,,24,evaluator,uninformative,,,1,1,0,1,0,0,0,0,0,0,,,
57,14,64.028191,54.939556,1,14,6,8,1,1,4,9,64,0,HF,6868,1,25,evaluator,uninformative,,,1,1,0,1,0,0,0,1,0,0,1,0,
58,14,64.128868,54.669231,1,14,3,8,1,1,4,10,64,.75,HF,6868,1,26,evaluator,uninformative,,,1,1,0,1,0,0,0,1,0,0,1,0,
59,14,16.273169,44.135124,1,14,1,8,0,1,4,11,0,.75,HF,6868,1,27,evaluator,uninformative,,,1,1,0,1,0,0,0,0,1,0,,1,0
60,14,63.557903,54.196156,1,14,3,8,1,1,4,12,64,.75,HF,6868,1,28,evaluator,informative,,,1,1,0,1,0,0,0,1,0,0,1,0,
61,14,63.663193,54.196156,1,14,10,8,1,1,4,13,64,0,HF,6868,1,29,evaluator,uninformative,,,1,1,0,1,0,0,0,1,0,0,1,0,
62,14,,,1,14,6,8,1,0,4,14,0,.75,HF,6868,0,30,evaluator,uninformative,,,1,1,0,1,0,0,0,0,0,1,,,1
63,14,63.185783,55.107697,1,14,2,8,1,1,4,15,64,.75,HF,6868,1,31,evaluator,informative,,,1,1,0,1,0,0,0,1,0,0,1,0,
64,14,63.291756,55.107697,1,14,9,8,1,1,4,16,64,.75,HF,6868,1,32,evaluator,informative,,,1,1,0,1,0,0,0,1,0,0,1,0,
1,15,57.536415,57.536419,1,15,5,6,1,1,1,1,69.28,0,HF,6868,1,1,evaluator,uninformative,,,0,0,0,1,0,0,0,1,0,0,1,0,
2,15,60.291317,56.618111,1,15,1,6,1,0,1,2,50,.75,HF,6868,1,2,evaluator,uninformative,,,0,0,0,1,0,0,0,1,0,0,1,0,
3,15,24.587336,40.163834,1,15,4,6,0,1,1,3,25,0,HF,6868,1,3,evaluator,informative,,,0,0,0,1,0,0,0,0,1,0,,1,0
4,15,59.025253,53.809196,1,15,7,6,1,1,1,4,70,.75,HF,6868,1,4,evaluator,informative,,,0,0,0,1,0,0,0,1,0,0,1,0,
5,15,60.168358,53.809196,1,15,7,6,1,0,1,5,50,.75,HF,6868,1,5,evaluator,informative,,,0,0,0,1,0,0,0,1,0,0,1,0,
6,15,61.010143,53.809196,1,15,9,6,1,1,1,6,60,0,HF,6868,1,6,evaluator,uninformative,,,0,0,0,1,0,0,0,1,0,0,1,0,
7,15,61.656796,53.417938,1,15,9,6,1,1,1,7,50,.75,HF,6868,1,7,evaluator,informative,,,0,0,0,1,0,0,0,1,0,0,1,0,
8,15,24.521215,45.316799,1,15,2,6,0,1,1,8,33,.75,HF,6868,1,8,evaluator,uninformative,,,0,0,0,1,0,0,0,0,1,0,,1,0
9,15,60.710667,53.081882,1,15,7,6,1,1,1,9,55,.75,HF,6868,1,9,evaluator,informative,,,0,0,0,1,0,0,0,1,0,0,1,0,
10,15,28.352083,45.895531,1,15,3,6,0,1,1,10,40,0,HF,6868,1,10,evaluator,uninformative,,,0,0,0,1,0,0,0,0,1,0,,1,0
11,15,60.09137,52.793842,1,15,9,6,1,1,1,11,50,.75,HF,6868,1,11,evaluator,uninformative,,,0,0,0,1,0,0,0,1,0,0,1,0,
12,15,,,1,15,2,6,0,0,1,12,75,0,HF,6868,0,12,evaluator,uninformative,,,0,0,0,1,0,0,1,0,0,0,0,,
13,15,60.945297,54.612679,1,15,1,6,1,1,1,13,65,0,HF,6868,1,13,evaluator,uninformative,,,0,0,0,1,0,0,0,1,0,0,1,0,
14,15,28.374771,44.169216,1,15,5,6,0,1,1,14,40,.75,HF,6868,1,14,evaluator,uninformative,,,0,0,0,1,0,0,0,0,1,0,,1,0
15,15,60.446247,53.991158,1,15,9,6,1,0,1,15,55,.75,HF,6868,1,15,evaluator,informative,,,0,0,0,1,0,0,0,1,0,0,1,0,
16,15,60.778164,53.991158,1,15,2,6,1,0,1,16,60,.75,HF,6868,1,16,evaluator,informative,,,0,0,0,1,0,0,0,1,0,0,1,0,
17,15,,,1,15,3,8,0,0,2,1,100,0,HF,6868,0,1,evaluator,uninformative,,,1,0,0,1,0,0,1,0,0,0,0,,
18,15,60.291317,60.291313,1,15,4,8,1,1,2,2,50,0,HF,6868,1,2,evaluator,uninformative,,,1,0,0,1,0,0,0,1,0,0,1,0,
19,15,24.587336,31.146833,1,15,5,8,0,1,2,3,75,.75,HF,6868,1,3,evaluator,uninformative,,,1,0,0,1,0,0,0,0,1,0,,1,0
20,15,59.025253,58.817417,1,15,2,8,1,1,2,4,70,.75,HF,6868,1,4,evaluator,uninformative,,,1,0,0,1,0,0,0,1,0,0,1,0,
21,15,60.168358,58.078003,1,15,4,8,1,1,2,5,50,0,HF,6868,1,5,evaluator,informative,,,1,0,0,1,0,0,0,1,0,0,1,0,
22,15,61.010143,58.078003,1,15,6,8,1,0,2,6,72,.75,HF,6868,1,6,evaluator,uninformative,,,1,0,0,1,0,0,0,1,0,0,1,0,
23,15,,,1,15,7,8,1,1,2,7,66,0,HF,6868,0,7,evaluator,uninformative,,,1,0,0,1,0,0,0,0,0,1,,,1
24,15,60.118446,59.382034,1,15,8,8,1,0,2,8,65,.75,HF,6868,1,8,evaluator,informative,,,1,0,0,1,0,0,0,1,0,0,1,0,
25,15,,,1,15,7,8,0,0,2,9,66,.75,HF,6868,0,9,evaluator,informative,,,1,0,0,1,0,0,1,0,0,0,0,,
26,15,61.203815,60.781776,1,15,6,8,1,0,2,10,67,.75,HF,6868,1,10,evaluator,informative,,,1,0,0,1,0,0,0,1,0,0,1,0,
27,15,,,1,15,6,8,1,0,2,11,0,.75,HF,6868,0,11,evaluator,uninformative,,,1,0,0,1,0,0,0,0,0,1,,,1
28,15,60.548225,61.784626,1,15,10,8,1,1,2,12,60,.75,HF,6868,1,12,evaluator,informative,,,1,0,0,1,0,0,0,1,0,0,1,0,
29,15,29.486485,24.901218,1,15,1,8,0,1,2,13,35,.75,HF,6868,1,13,evaluator,uninformative,,,1,0,0,1,0,0,0,0,1,0,,1,0
30,15,60.074375,61.336273,1,15,7,8,1,1,2,14,62,.75,HF,6868,1,14,evaluator,uninformative,,,1,0,0,1,0,0,0,1,0,0,1,0,
31,15,60.446247,60.866314,1,15,10,8,1,1,2,15,60,.75,HF,6868,1,15,evaluator,uninformative,,,1,0,0,1,0,0,0,1,0,0,1,0,
32,15,,,1,15,2,8,1,1,2,16,1,.75,HF,6868,0,16,evaluator,uninformative,,,1,0,0,1,0,0,0,0,0,1,,,1
33,15,,,1,15,11,6,1,0,3,1,,0,HF,6868,,17,evaluator,informative,,,0,1,0,1,0,0,0,0,0,0,,,
34,15,61.076271,53.991158,1,15,7,6,1,0,3,2,52,0,HF,6868,1,18,evaluator,uninformative,,,0,1,0,1,0,0,0,1,0,0,1,0,
35,15,61.345505,53.728424,1,15,6,6,1,1,3,3,50,0,HF,6868,1,19,evaluator,informative,,,0,1,0,1,0,0,0,1,0,0,1,0,
36,15,61.589882,53.728424,1,15,6,6,1,1,3,4,66,.75,HF,6868,1,20,evaluator,uninformative,,,0,1,0,1,0,0,0,1,0,0,1,0,
37,15,,,1,15,11,6,0,1,3,5,,.75,HF,6868,,21,evaluator,uninformative,,,0,1,0,1,0,0,0,0,0,0,,,
38,15,,,1,15,7,6,0,0,3,6,70,.75,HF,6868,0,22,evaluator,informative,,,0,1,0,1,0,0,1,0,0,0,0,,
39,15,26.077967,43.203075,1,15,5,6,0,0,3,7,20,.75,HF,6868,1,23,evaluator,informative,,,0,1,0,1,0,0,0,0,1,0,,1,0
40,15,,,1,15,1,6,0,1,3,8,66,.75,HF,6868,0,24,evaluator,informative,,,0,1,0,1,0,0,1,0,0,0,0,,
41,15,27.736202,42.621006,1,15,3,6,0,1,3,9,21,.75,HF,6868,1,25,evaluator,uninformative,,,0,1,0,1,0,0,0,0,1,0,,1,0
42,15,61.019211,55.131157,1,15,9,6,1,0,3,10,68,.75,HF,6868,1,26,evaluator,informative,,,0,1,0,1,0,0,0,1,0,0,1,0,
43,15,,,1,15,1,6,1,1,3,11,1,.75,HF,6868,0,27,evaluator,uninformative,,,0,1,0,1,0,0,0,0,0,1,,,1
44,15,60.715469,56.096745,1,15,7,6,1,0,3,12,60,.75,HF,6868,1,28,evaluator,uninformative,,,0,1,0,1,0,0,0,1,0,0,1,0,
45,15,,,1,15,10,6,0,0,3,13,70,.75,HF,6868,0,29,evaluator,informative,,,0,1,0,1,0,0,1,0,0,0,0,,
46,15,61.090248,56.714512,1,15,1,6,1,0,3,14,62,0,HF,6868,1,30,evaluator,informative,,,0,1,0,1,0,0,0,1,0,0,1,0,
47,15,61.260422,56.714512,1,15,5,6,1,0,3,15,70,0,HF,6868,1,31,evaluator,uninformative,,,0,1,0,1,0,0,0,1,0,0,1,0,
48,15,28.449139,40.635429,1,15,2,6,0,1,3,16,25,.75,HF,6868,1,32,evaluator,uninformative,,,0,1,0,1,0,0,0,0,1,0,,1,0
49,15,60.06271,61.341656,1,15,7,8,1,0,4,1,60,.75,HF,6868,1,17,evaluator,uninformative,,,1,1,0,1,0,0,0,1,0,0,1,0,
50,15,31.540833,28.144842,1,15,10,8,0,1,4,2,33,.75,HF,6868,1,18,evaluator,uninformative,,,1,1,0,1,0,0,0,0,1,0,,1,0
51,15,59.758808,60.464828,1,15,10,8,1,0,4,3,60,0,HF,6868,1,19,evaluator,informative,,,1,1,0,1,0,0,0,1,0,0,1,0,
52,15,60.054211,60.464828,1,15,9,8,1,1,4,4,70,0,HF,6868,1,20,evaluator,uninformative,,,1,1,0,1,0,0,0,1,0,0,1,0,
53,15,60.32526,60.017483,1,15,10,8,1,1,4,5,66,.75,HF,6868,1,21,evaluator,informative,,,1,1,0,1,0,0,0,1,0,0,1,0,
54,15,31.054012,31.052267,1,15,1,8,0,1,4,6,33,.75,HF,6868,1,22,evaluator,informative,,,1,1,0,1,0,0,0,0,1,0,,1,0
55,15,32.655128,36.42844,1,15,8,8,0,1,4,7,33,.75,HF,6868,1,23,evaluator,informative,,,1,1,0,1,0,0,0,0,1,0,,1,0
56,15,59.570347,57.213818,1,15,6,8,1,1,4,8,66,.75,HF,6868,1,24,evaluator,informative,,,1,1,0,1,0,0,0,1,0,0,1,0,
57,15,59.814663,57.213818,1,15,7,8,1,1,4,9,66,.75,HF,6868,1,25,evaluator,informative,,,1,1,0,1,0,0,0,1,0,0,1,0,
58,15,60.042648,57.213818,1,15,6,8,1,1,4,10,69,.75,HF,6868,1,26,evaluator,informative,,,1,1,0,1,0,0,0,1,0,0,1,0,
59,15,60.255894,57.213818,1,15,4,8,1,0,4,11,66,.75,HF,6868,1,27,evaluator,informative,,,1,1,0,1,0,0,0,1,0,0,1,0,
60,15,,,1,15,11,8,1,0,4,12,,.75,HF,6868,,28,evaluator,uninformative,,,1,1,0,1,0,0,0,0,0,0,,,
61,15,60.455784,57.213818,1,15,9,8,1,1,4,13,66,.75,HF,6868,1,29,evaluator,informative,,,1,1,0,1,0,0,0,1,0,0,1,0,
62,15,60.643543,57.213818,1,15,2,8,1,0,4,14,66,0,HF,6868,1,30,evaluator,uninformative,,,1,1,0,1,0,0,0,1,0,0,1,0,
63,15,60.820248,56.95895,1,15,8,8,1,0,4,15,66,.75,HF,6868,1,31,evaluator,informative,,,1,1,0,1,0,0,0,1,0,0,1,0,
64,15,60.986847,56.95895,1,15,4,8,1,1,4,16,66,.75,HF,6868,1,32,evaluator,informative,,,1,1,0,1,0,0,0,1,0,0,1,0,
1,16,57.536415,57.536419,1,16,9,6,1,1,1,1,80,.75,HF,6868,1,1,evaluator,informative,,,0,0,0,1,0,0,0,1,0,0,1,0,
2,16,60.291317,57.536419,1,16,10,6,1,1,1,2,80,.75,HF,6868,1,2,evaluator,informative,,,0,0,0,1,0,0,0,1,0,0,1,0,
3,16,61.747894,57.536419,1,16,9,6,1,0,1,3,80,.75,HF,6868,1,3,evaluator,uninformative,,,0,0,0,1,0,0,0,1,0,0,1,0,
4,16,,,1,16,3,6,0,1,1,4,70,.75,HF,6868,0,4,evaluator,informative,,,0,0,0,1,0,0,1,0,0,0,0,,
5,16,19.147659,31.146833,1,16,4,6,0,0,1,5,0,.75,HF,6868,1,5,evaluator,uninformative,,,0,0,0,1,0,0,0,0,1,0,,1,0
6,16,61.010143,58.817417,1,16,6,6,1,0,1,6,80,.75,HF,6868,1,6,evaluator,informative,,,0,0,0,1,0,0,0,1,0,0,1,0,
7,16,61.656796,58.817417,1,16,6,6,1,0,1,7,80,.75,HF,6868,1,7,evaluator,informative,,,0,0,0,1,0,0,0,1,0,0,1,0,
8,16,62.169579,58.817417,1,16,9,6,1,0,1,8,66.66,0,HF,6868,1,8,evaluator,uninformative,,,0,0,0,1,0,0,0,1,0,0,1,0,
9,16,22.98875,35.304123,1,16,9,6,0,1,1,9,0,.75,HF,6868,1,9,evaluator,uninformative,,,0,0,0,1,0,0,0,0,1,0,,1,0
10,16,28.352083,37.156265,1,16,4,6,0,0,1,10,0,.75,HF,6868,1,10,evaluator,uninformative,,,0,0,0,1,0,0,0,0,1,0,,1,0
11,16,32.014118,38.805943,1,16,7,6,0,0,1,11,0,.75,HF,6868,1,11,evaluator,uninformative,,,0,0,0,1,0,0,0,0,1,0,,1,0
12,16,59.177662,56.094624,1,16,6,6,1,1,1,12,80,.75,HF,6868,1,12,evaluator,informative,,,0,0,0,1,0,0,0,1,0,0,1,0,
13,16,,,1,16,3,6,0,1,1,13,70,.75,HF,6868,0,13,evaluator,informative,,,0,0,0,1,0,0,1,0,0,0,0,,
14,16,60.074375,58.147396,1,16,2,6,1,0,1,14,80,.75,HF,6868,1,14,evaluator,uninformative,,,0,0,0,1,0,0,0,1,0,0,1,0,
15,16,31.198202,37.15316,1,16,2,6,0,1,1,15,0,0,HF,6868,1,15,evaluator,informative,,,0,0,0,1,0,0,0,0,1,0,,1,0
16,16,59.716026,55.906952,1,16,3,6,1,1,1,16,80,.75,HF,6868,1,16,evaluator,informative,,,0,0,0,1,0,0,0,1,0,0,1,0,
17,16,57.536415,57.536419,1,16,6,8,1,1,2,1,80,.75,HF,6868,1,1,evaluator,informative,,,1,0,0,1,0,0,0,1,0,0,1,0,
18,16,60.291317,57.536419,1,16,10,8,1,1,2,2,80,.75,HF,6868,1,2,evaluator,informative,,,1,0,0,1,0,0,0,1,0,0,1,0,
19,16,61.747894,57.536419,1,16,1,8,1,1,2,3,80,.75,HF,6868,1,3,evaluator,uninformative,,,1,0,0,1,0,0,0,1,0,0,1,0,
20,16,21.488596,38.160057,1,16,1,8,0,1,2,4,0,0,HF,6868,1,4,evaluator,informative,,,1,0,0,1,0,0,0,0,1,0,,1,0
21,16,60.168358,54.262184,1,16,6,8,1,1,2,5,80,.75,HF,6868,1,5,evaluator,informative,,,1,0,0,1,0,0,0,1,0,0,1,0,
22,16,28.371347,43.770634,1,16,8,8,0,1,2,6,10,.75,HF,6868,1,6,evaluator,uninformative,,,1,0,0,1,0,0,0,0,1,0,,1,0
